"Time (s)","Acceleration x (m/s^2)","Acceleration y (m/s^2)","Acceleration z (m/s^2)","Absolute acceleration (m/s^2)"
0.000000000E0,3.412902832E-2,6.616241455E-2,9.855505371E0,9.855786543E0
9.998000009E-3,3.532653809E-2,7.214996338E-2,9.860145721E0,9.860472972E0
1.999600000E-2,4.026626587E-2,6.706054688E-2,9.855804749E0,9.856115144E0
2.999400000E-2,4.805007935E-2,6.706054688E-2,9.861492920E0,9.861837990E0
3.999100000E-2,4.595443726E-2,7.349716187E-2,9.871072998E0,9.871453580E0
4.998900001E-2,4.430786133E-2,7.319778442E-2,9.854906616E0,9.855278054E0
5.998700000E-2,4.326004028E-2,6.915618896E-2,9.857900391E0,9.858237881E0
6.998500001E-2,4.969665527E-2,7.229965210E-2,9.862540741E0,9.862930947E0
7.998200000E-2,4.745132446E-2,7.140151978E-2,9.863588562E0,9.863961128E0
8.998000000E-2,3.847000122E-2,7.259902954E-2,9.862091675E0,9.862433917E0
9.997800000E-2,4.191284180E-2,7.619155884E-2,9.853110352E0,9.853494073E0
1.099760000E-1,4.236190796E-2,7.349716187E-2,9.847871246E0,9.848236616E0
1.199740000E-1,4.745132446E-2,6.855743408E-2,9.851763153E0,9.852115964E0
1.299730000E-1,4.580474854E-2,7.289840698E-2,9.854307861E0,9.854683946E0
1.399700000E-1,4.340972900E-2,7.604187012E-2,9.846224670E0,9.846613988E0
1.499690000E-1,4.011657715E-2,6.556365967E-2,9.851314087E0,9.851613937E0
1.599680000E-1,3.652404785E-2,6.646179199E-2,9.849966888E0,9.850258823E0
1.699660000E-1,4.251159668E-2,5.822891235E-2,9.846074982E0,9.846338933E0
1.799650000E-1,4.176315308E-2,6.691085815E-2,9.857301636E0,9.857617195E0
1.899630000E-1,3.996688843E-2,7.095245361E-2,9.854607239E0,9.854943705E0
1.999610000E-1,3.966751099E-2,6.436614990E-2,9.864337006E0,9.864626758E0
2.099590000E-1,4.864883423E-2,6.646179199E-2,9.853858795E0,9.854203014E0
2.199570000E-1,4.595443726E-2,7.065307617E-2,9.857151947E0,9.857512271E0
2.299560000E-1,4.924758911E-2,6.406677246E-2,9.860894165E0,9.861225259E0
2.399540000E-1,4.625381470E-2,6.227050781E-2,9.859247589E0,9.859552731E0
2.499530000E-1,4.116439819E-2,7.349716187E-2,9.867031403E0,9.867390995E0
2.599510000E-1,4.296066284E-2,7.888595581E-2,9.853409729E0,9.853819153E0
2.699500000E-1,3.547622681E-2,6.825805664E-2,9.858050079E0,9.858350222E0
2.799480000E-1,4.251159668E-2,6.780899048E-2,9.856852570E0,9.857177480E0
2.899460000E-1,4.370910645E-2,7.110214233E-2,9.857451324E0,9.857804655E0
2.999430000E-1,4.326004028E-2,6.661148071E-2,9.858798523E0,9.859118461E0
3.099410000E-1,4.400848389E-2,7.783813477E-2,9.856104126E0,9.856509730E0
3.199390000E-1,4.909790039E-2,7.873626709E-2,9.859097900E0,9.859534543E0
3.299370000E-1,4.580474854E-2,7.349716187E-2,9.862840118E0,9.863220321E0
3.399350000E-1,4.161346436E-2,7.065307617E-2,9.863438873E0,9.863779699E0
3.499330000E-1,4.221221924E-2,7.080276489E-2,9.862989807E0,9.863334266E0
3.599310000E-1,4.535568237E-2,7.244934082E-2,9.851763153E0,9.852133945E0
3.699290000E-1,4.400848389E-2,7.185058594E-2,9.855655060E0,9.856015215E0
3.799260000E-1,3.367996216E-2,7.349716187E-2,9.867630157E0,9.867961345E0
3.899220000E-1,3.532653809E-2,6.646179199E-2,9.851613464E0,9.851900983E0
3.999200000E-1,3.353027344E-2,7.155120850E-2,9.858199768E0,9.858516446E0
4.099170000E-1,4.355941772E-2,6.646179199E-2,9.862540741E0,9.862860866E0
4.199137083E-1,4.415817261E-2,7.005432129E-2,9.854906616E0,9.855254536E0
4.299117083E-1,4.146377563E-2,5.867797852E-2,9.864187317E0,9.864448985E0
4.399087083E-1,3.861968994E-2,5.972579956E-2,9.854607239E0,9.854863900E0
4.499057083E-1,4.565505981E-2,7.469467163E-2,9.848470001E0,9.848859073E0
4.599027083E-1,4.550537109E-2,7.454498291E-2,9.848769379E0,9.849156612E0
4.699007083E-1,4.326004028E-2,6.631210327E-2,9.858499146E0,9.858817075E0
4.798967083E-1,4.775070190E-2,7.185058594E-2,9.860744476E0,9.861121856E0
4.898937083E-1,4.206253052E-2,7.244934082E-2,9.851912842E0,9.852269018E0
4.998917083E-1,3.787124634E-2,7.200027466E-2,9.863139496E0,9.863474995E0
5.098887083E-1,4.041595459E-2,6.017486572E-2,9.853260040E0,9.853526672E0
5.198857083E-1,3.727249146E-2,6.885681152E-2,9.857301636E0,9.857612593E0
5.298807083E-1,3.861968994E-2,7.170089722E-2,9.860445099E0,9.860781412E0
5.398777083E-1,4.236190796E-2,6.990463257E-2,9.858948212E0,9.859287045E0
5.498737083E-1,4.086502075E-2,6.855743408E-2,9.860295410E0,9.860618421E0
5.598707083E-1,4.056564331E-2,7.214996338E-2,9.854607239E0,9.854954846E0
5.698677083E-1,4.370910645E-2,7.783813477E-2,9.863738251E0,9.864142210E0
5.798647083E-1,4.670288086E-2,6.271957397E-2,9.874815216E0,9.875124832E0
5.898607083E-1,3.921844482E-2,6.571334839E-2,9.849517822E0,9.849815108E0
5.998577083E-1,3.951782227E-2,6.256988525E-2,9.851463776E0,9.851741733E0
6.098537083E-1,4.760101318E-2,6.780899048E-2,9.849068756E0,9.849417205E0
6.198497083E-1,4.805007935E-2,6.676116943E-2,9.867181091E0,9.867523932E0
6.298467083E-1,4.805007935E-2,6.855743408E-2,9.849068756E0,9.849424567E0
6.398417083E-1,4.221221924E-2,6.825805664E-2,9.858349457E0,9.858676130E0
6.498387083E-1,4.176315308E-2,7.065307617E-2,9.859996033E0,9.860337610E0
6.598357083E-1,3.906875610E-2,7.125183105E-2,9.859846344E0,9.860181191E0
6.698327083E-1,3.427871704E-2,7.214996338E-2,9.854008484E0,9.854332238E0
6.798297083E-1,4.490661621E-2,8.217910767E-2,9.861792297E0,9.862236933E0
6.898257083E-1,5.553451538E-2,6.945556641E-2,9.857750702E0,9.858151807E0
6.998217083E-1,4.415817261E-2,6.152206421E-2,9.854756927E0,9.855047895E0
7.098187083E-1,3.861968994E-2,8.068222046E-2,9.861792297E0,9.862197951E0
7.198147083E-1,4.370910645E-2,7.694000244E-2,9.868677979E0,9.869074693E0
7.298117083E-1,4.580474854E-2,6.795867920E-2,9.860594788E0,9.860935352E0
7.398087083E-1,3.772155762E-2,7.529342651E-2,9.860894165E0,9.861253762E0
7.498047083E-1,4.176315308E-2,6.795867920E-2,9.854906616E0,9.855229422E0
7.598017083E-1,4.116439819E-2,6.466552734E-2,9.851314087E0,9.851612324E0
7.697987083E-1,4.445755005E-2,6.541397095E-2,9.849817200E0,9.850134737E0
7.797947083E-1,3.921844482E-2,7.708969116E-2,9.852511597E0,9.852891234E0
7.897927083E-1,4.056564331E-2,7.125183105E-2,9.868079224E0,9.868419831E0
7.997897083E-1,4.535568237E-2,7.035369873E-2,9.857151947E0,9.857507357E0
8.097867083E-1,3.981719971E-2,7.604187012E-2,9.866582336E0,9.866955700E0
8.197847083E-1,5.224136353E-2,7.080276489E-2,9.866732025E0,9.867124356E0
8.297817083E-1,4.924758911E-2,7.125183105E-2,9.858199768E0,9.858580264E0
8.397787083E-1,4.041595459E-2,7.604187012E-2,9.856852570E0,9.857228738E0
8.497757083E-1,4.445755005E-2,6.511459351E-2,9.861642609E0,9.861957784E0
8.597727083E-1,3.891906738E-2,7.334747314E-2,9.854307861E0,9.854657679E0
8.697697083E-1,4.101470947E-2,7.304809570E-2,9.862391052E0,9.862746854E0
8.797667083E-1,4.640350342E-2,7.080276489E-2,9.859996033E0,9.860359430E0
8.897637083E-1,4.625381470E-2,7.080276489E-2,9.866133270E0,9.866495738E0
8.997617083E-1,4.520599365E-2,6.556365967E-2,9.856702881E0,9.857024595E0
9.097597083E-1,3.906875610E-2,6.661148071E-2,9.855954437E0,9.856256963E0
9.197567083E-1,3.727249146E-2,6.511459351E-2,9.856852570E0,9.857138110E0
9.297547083E-1,4.281097412E-2,5.688171387E-2,9.859097900E0,9.859354934E0
9.397517083E-1,4.490661621E-2,7.274871826E-2,9.856104126E0,9.856474903E0
9.497497083E-1,4.011657715E-2,6.780899048E-2,9.851763153E0,9.852078188E0
9.597467083E-1,4.146377563E-2,6.840774536E-2,9.860894165E0,9.861218616E0
9.697447083E-1,4.131408691E-2,7.244934082E-2,9.853858795E0,9.854211735E0
9.797427083E-1,4.326004028E-2,7.619155884E-2,9.857750702E0,9.858140062E0
9.897397083E-1,4.146377563E-2,6.795867920E-2,9.854008484E0,9.854330055E0
9.997377083E-1,3.921844482E-2,7.604187012E-2,9.856104126E0,9.856475485E0
1.009734708E0,4.116439819E-2,7.020401001E-2,9.863887939E0,9.864223659E0
1.019731708E0,4.311035156E-2,6.676116943E-2,9.862091675E0,9.862411863E0
1.029729708E0,4.041595459E-2,6.900650024E-2,9.861193542E0,9.861517806E0
1.039726708E0,4.670288086E-2,6.631210327E-2,9.872270508E0,9.872603681E0
1.049724708E0,3.861968994E-2,6.900650024E-2,9.863289185E0,9.863606182E0
1.059721708E0,4.011657715E-2,6.855743408E-2,9.848619690E0,9.848940007E0
1.069718708E0,4.326004028E-2,7.364685059E-2,9.858050079E0,9.858420089E0
1.079716708E0,3.592529297E-2,7.454498291E-2,9.858648834E0,9.858996116E0
1.089715708E0,5.014572144E-2,7.574249268E-2,9.871222687E0,9.871640636E0
1.099713708E0,4.969665527E-2,7.304809570E-2,9.857151947E0,9.857547884E0
1.109712708E0,4.999603271E-2,6.885681152E-2,9.863139496E0,9.863506556E0
1.119710708E0,4.251159668E-2,7.244934082E-2,9.860295410E0,9.860653210E0
1.129708708E0,3.891906738E-2,6.945556641E-2,9.858499146E0,9.858820628E0
1.139706708E0,4.415817261E-2,7.723937988E-2,9.847422180E0,9.847824098E0
1.149704708E0,4.296066284E-2,7.708969116E-2,9.859696655E0,9.860091611E0
1.159701708E0,4.311035156E-2,8.232879639E-2,9.864786072E0,9.865223808E0
1.169699708E0,5.209167480E-2,7.289840698E-2,9.860744476E0,9.861151522E0
1.179696708E0,4.999603271E-2,6.945556641E-2,9.850266266E0,9.850638009E0
1.189693708E0,4.565505981E-2,7.574249268E-2,9.857750702E0,9.858147403E0
1.199690708E0,4.640350342E-2,7.259902954E-2,9.852511597E0,9.852888341E0
1.209686708E0,4.251159668E-2,6.197113037E-2,9.856403503E0,9.856689996E0
1.219682708E0,4.610412598E-2,6.915618896E-2,9.853110352E0,9.853460903E0
1.229680708E0,3.891906738E-2,7.334747314E-2,9.864037628E0,9.864387101E0
1.239676708E0,4.146377563E-2,5.972579956E-2,9.844278717E0,9.844547215E0
1.249673708E0,3.757186890E-2,6.421646118E-2,9.855505371E0,9.855786195E0
1.259669708E0,3.517684937E-2,6.571334839E-2,9.854307861E0,9.854589747E0
1.269666708E0,3.697311401E-2,6.810836792E-2,9.844428406E0,9.844733435E0
1.279663708E0,4.984634399E-2,7.514373779E-2,9.855056305E0,9.855468838E0
1.289660708E0,4.715194702E-2,7.095245361E-2,9.866732025E0,9.867099797E0
1.299657708E0,3.861968994E-2,5.598358154E-2,9.854307861E0,9.854542560E0
1.309654708E0,4.131408691E-2,6.496490479E-2,9.862091675E0,9.862392179E0
1.319651708E0,4.745132446E-2,6.885681152E-2,9.857451324E0,9.857806019E0
1.329648708E0,4.580474854E-2,7.065307617E-2,9.858948212E0,9.859307773E0
1.339645708E0,4.385879517E-2,7.379653931E-2,9.851014709E0,9.851388751E0
1.349642708E0,4.520599365E-2,6.825805664E-2,9.859846344E0,9.860186239E0
1.359640708E0,4.670288086E-2,6.676116943E-2,9.860145721E0,9.860482334E0
1.369636708E0,4.385879517E-2,7.394622803E-2,9.863588562E0,9.863963248E0
1.379633708E0,4.415817261E-2,7.020401001E-2,9.857601013E0,9.857949903E0
1.389630708E0,4.400848389E-2,7.020401001E-2,9.853709106E0,9.854057464E0
1.399628708E0,4.281097412E-2,7.020401001E-2,9.858349457E0,9.858692378E0
1.409625708E0,3.981719971E-2,6.945556641E-2,9.850266266E0,9.850591606E0
1.419621708E0,3.682342529E-2,7.005432129E-2,9.860145721E0,9.860463337E0
1.429618708E0,4.984634399E-2,7.694000244E-2,9.848320312E0,9.848746996E0
1.439616708E0,4.236190796E-2,7.768844604E-2,9.848919067E0,9.849316566E0
1.449614708E0,4.939727783E-2,7.409591675E-2,9.857151947E0,9.857554200E0
1.459612708E0,4.251159668E-2,8.023315430E-2,9.865983582E0,9.866401402E0
1.469610708E0,3.861968994E-2,7.065307617E-2,9.862540741E0,9.862869420E0
1.479608708E0,4.221221924E-2,7.903564453E-2,9.865534515E0,9.865941404E0
1.489605708E0,4.236190796E-2,6.526428223E-2,9.869276733E0,9.869583436E0
1.499602708E0,3.592529297E-2,7.110214233E-2,9.858050079E0,9.858371950E0
1.509598708E0,3.682342529E-2,7.349716187E-2,9.858948212E0,9.859290930E0
1.519595708E0,4.580474854E-2,7.274871826E-2,9.869725800E0,9.870100192E0
1.529592708E0,4.745132446E-2,6.601272583E-2,9.855655060E0,9.855990359E0
1.539589708E0,3.861968994E-2,6.795867920E-2,9.852361908E0,9.852671974E0
1.549586708E0,4.071533203E-2,7.843688965E-2,9.859397278E0,9.859793343E0
1.559583708E0,4.849914551E-2,6.586303711E-2,9.855355682E0,9.855695091E0
1.569581708E0,4.565505981E-2,7.095245361E-2,9.868079224E0,9.868439907E0
1.579579708E0,4.116439819E-2,6.541397095E-2,9.864486694E0,9.864789467E0
1.589577708E0,3.966751099E-2,6.301895142E-2,9.864486694E0,9.864767744E0
1.599575708E0,3.906875610E-2,7.619155884E-2,9.860295410E0,9.860667173E0
1.609572708E0,4.206253052E-2,6.646179199E-2,9.853559418E0,9.853873331E0
1.619569708E0,4.879852295E-2,7.409591675E-2,9.864486694E0,9.864885668E0
1.629567708E0,3.981719971E-2,7.214996338E-2,9.860445099E0,9.860789450E0
1.639564708E0,4.550537109E-2,7.349716187E-2,9.860445099E0,9.860824008E0
1.649561708E0,4.340972900E-2,6.795867920E-2,9.854607239E0,9.854937170E0
1.659558708E0,3.906875610E-2,6.227050781E-2,9.860145721E0,9.860419749E0
1.669555708E0,4.565505981E-2,7.050338745E-2,9.857601013E0,9.857958858E0
1.679553708E0,4.460723877E-2,7.708969116E-2,9.853858795E0,9.854261301E0
1.689550708E0,4.221221924E-2,7.185058594E-2,9.861642609E0,9.861994693E0
1.699548708E0,4.326004028E-2,6.960525513E-2,9.864636383E0,9.864976801E0
1.709545708E0,4.251159668E-2,7.619155884E-2,9.865085449E0,9.865471266E0
1.719542708E0,4.984634399E-2,6.152206421E-2,9.868977356E0,9.869294994E0
1.729540708E0,4.655319214E-2,6.616241455E-2,9.847871246E0,9.848203529E0
1.739537708E0,4.819976807E-2,7.200027466E-2,9.867181091E0,9.867561499E0
1.749533708E0,4.071533203E-2,7.514373779E-2,9.866432648E0,9.866802801E0
1.759530708E0,4.340972900E-2,6.915618896E-2,9.849068756E0,9.849407208E0
1.769528708E0,3.966751099E-2,7.319778442E-2,9.861642609E0,9.861994036E0
1.779524708E0,5.014572144E-2,7.080276489E-2,9.868827667E0,9.869209044E0
1.789520708E0,4.415817261E-2,6.077362061E-2,9.854756927E0,9.855043251E0
1.799517708E0,4.101470947E-2,5.972579956E-2,9.859696655E0,9.859962855E0
1.809514708E0,4.700225830E-2,7.259902954E-2,9.846973114E0,9.847352910E0
1.819510708E0,4.565505981E-2,7.364685059E-2,9.856253815E0,9.856634695E0
1.829506708E0,5.343887329E-2,6.990463257E-2,9.863438873E0,9.863831344E0
1.839503708E0,4.655319214E-2,6.765930176E-2,9.870174866E0,9.870516545E0
1.849499708E0,4.520599365E-2,5.942642212E-2,9.853110352E0,9.853393257E0
1.859494708E0,4.086502075E-2,6.661148071E-2,9.868528290E0,9.868837705E0
1.869490708E0,3.832031250E-2,7.080276489E-2,9.857451324E0,9.857780079E0
1.879487708E0,3.293151855E-2,6.870712280E-2,9.851463776E0,9.851758405E0
1.889483708E0,3.951782227E-2,6.481521606E-2,9.844278717E0,9.844571404E0
1.899479708E0,3.981719971E-2,8.053253174E-2,9.857151947E0,9.857561332E0
1.909476708E0,3.772155762E-2,7.200027466E-2,9.859397278E0,9.859732331E0
1.919473708E0,3.832031250E-2,6.661148071E-2,9.859097900E0,9.859397393E0
1.929468708E0,4.445755005E-2,7.185058594E-2,9.851463776E0,9.851826100E0
1.939464708E0,4.520599365E-2,7.544311523E-2,9.858798523E0,9.859190817E0
1.949461708E0,4.311035156E-2,6.451583862E-2,9.860145721E0,9.860451026E0
1.959458708E0,4.550537109E-2,6.900650024E-2,9.863289185E0,9.863635545E0
1.969454708E0,4.370910645E-2,6.915618896E-2,9.853858795E0,9.854198406E0
1.979450708E0,4.026626587E-2,7.155120850E-2,9.864187317E0,9.864528999E0
1.989447708E0,4.490661621E-2,8.577163696E-2,9.861343231E0,9.861818478E0
1.999444708E0,4.445755005E-2,6.331832886E-2,9.866133270E0,9.866436611E0
2.009440708E0,4.101470947E-2,5.987548828E-2,9.864187317E0,9.864454303E0
2.019437708E0,4.041595459E-2,7.559280396E-2,9.859397278E0,9.859769896E0
2.029434708E0,3.951782227E-2,7.679031372E-2,9.862091675E0,9.862469803E0
2.039430708E0,4.011657715E-2,7.604187012E-2,9.859996033E0,9.860370859E0
2.049427708E0,4.116439819E-2,7.559280396E-2,9.851164398E0,9.851540427E0
2.059423708E0,4.655319214E-2,7.244934082E-2,9.846823425E0,9.847199992E0
2.069419708E0,5.134323120E-2,7.050338745E-2,9.863139496E0,9.863525109E0
2.079415708E0,4.909790039E-2,6.601272583E-2,9.862840118E0,9.863183233E0
2.089411708E0,4.520599365E-2,6.855743408E-2,9.862391052E0,9.862732936E0
2.099408708E0,4.340972900E-2,7.439529419E-2,9.865085449E0,9.865461468E0
2.109405708E0,4.849914551E-2,6.795867920E-2,9.860744476E0,9.861097919E0
2.119403708E0,3.847000122E-2,6.975494385E-2,9.867480469E0,9.867802009E0
2.129400708E0,4.116439819E-2,7.364685059E-2,9.857002258E0,9.857363333E0
2.139398708E0,4.355941772E-2,7.005432129E-2,9.859696655E0,9.860041743E0
2.149394708E0,3.936813354E-2,6.840774536E-2,9.862391052E0,9.862706867E0
2.159392708E0,4.490661621E-2,7.454498291E-2,9.850415955E0,9.850800375E0
2.169388708E0,4.415817261E-2,6.990463257E-2,9.857750702E0,9.858097459E0
2.179385708E0,4.221221924E-2,7.170089722E-2,9.845925293E0,9.846276848E0
2.189382708E0,4.131408691E-2,6.197113037E-2,9.865684204E0,9.865965340E0
2.199378708E0,3.981719971E-2,7.065307617E-2,9.861941986E0,9.862275448E0
2.209375708E0,3.592529297E-2,7.035369873E-2,9.862690430E0,9.863006782E0
2.219372708E0,4.550537109E-2,7.828720093E-2,9.859696655E0,9.860112462E0
2.229369708E0,4.670288086E-2,7.888595581E-2,9.855355682E0,9.855782048E0
2.239365708E0,3.397933960E-2,6.376739502E-2,9.853110352E0,9.853375283E0
2.249362708E0,4.116439819E-2,6.750961304E-2,9.869426422E0,9.869743156E0
2.259360708E0,3.981719971E-2,6.511459351E-2,9.863738251E0,9.864033536E0
2.269356708E0,4.700225830E-2,7.694000244E-2,9.861343231E0,9.861755386E0
2.279353708E0,4.116439819E-2,7.155120850E-2,9.857900391E0,9.858246000E0
2.289350708E0,4.221221924E-2,6.990463257E-2,9.846524048E0,9.846862666E0
2.299347708E0,4.640350342E-2,8.143066406E-2,9.862241364E0,9.862686700E0
2.309344708E0,3.951782227E-2,7.619155884E-2,9.865085449E0,9.865458820E0
2.319341708E0,4.251159668E-2,6.646179199E-2,9.859546967E0,9.859862615E0
2.329338708E0,5.104385376E-2,7.469467163E-2,9.863887939E0,9.864302816E0
2.339335708E0,4.116439819E-2,7.888595581E-2,9.866133270E0,9.866534509E0
2.349332708E0,4.176315308E-2,7.619155884E-2,9.854008484E0,9.854391534E0
2.359329708E0,3.772155762E-2,6.885681152E-2,9.861492920E0,9.861805453E0
2.369326708E0,4.550537109E-2,6.735992432E-2,9.865235138E0,9.865570051E0
2.379322708E0,5.044509888E-2,7.888595581E-2,9.871821442E0,9.872265509E0
2.389319708E0,4.296066284E-2,6.421646118E-2,9.861343231E0,9.861645892E0
2.399316708E0,3.891906738E-2,7.589218140E-2,9.855655060E0,9.856024096E0
2.409313708E0,3.592529297E-2,6.466552734E-2,9.859846344E0,9.860123842E0
2.419311458E0,3.727249146E-2,7.589218140E-2,9.865085449E0,9.865447774E0
2.429309458E0,3.981719971E-2,7.259902954E-2,9.860744476E0,9.861092113E0
2.439306458E0,4.715194702E-2,6.825805664E-2,9.857750702E0,9.858099785E0
2.449304458E0,4.146377563E-2,7.140151978E-2,9.859247589E0,9.859593320E0
2.459301458E0,5.014572144E-2,5.942642212E-2,9.862840118E0,9.863146622E0
2.469298458E0,4.460723877E-2,6.391708374E-2,9.857151947E0,9.857460104E0
2.479295458E0,4.580474854E-2,6.840774536E-2,9.859996033E0,9.860339723E0
2.489292458E0,4.221221924E-2,7.214996338E-2,9.850415955E0,9.850770628E0
2.499289458E0,4.056564331E-2,6.571334839E-2,9.852810974E0,9.853113615E0
2.509286458E0,4.400848389E-2,6.017486572E-2,9.864486694E0,9.864768396E0
2.519282458E0,4.116439819E-2,6.975494385E-2,9.855804749E0,9.856137555E0
2.529279458E0,4.715194702E-2,7.244934082E-2,9.867480469E0,9.867859090E0
2.539276458E0,4.311035156E-2,6.840774536E-2,9.855056305E0,9.855388013E0
2.549272458E0,3.876937866E-2,7.274871826E-2,9.865684204E0,9.866028596E0
2.559269458E0,4.236190796E-2,7.050338745E-2,9.855205994E0,9.855549220E0
2.569267458E0,4.745132446E-2,6.691085815E-2,9.858199768E0,9.858541036E0
2.579264458E0,4.176315308E-2,6.256988525E-2,9.864037628E0,9.864324482E0
2.589261458E0,4.311035156E-2,6.436614990E-2,9.863738251E0,9.864042467E0
2.599257458E0,4.670288086E-2,6.436614990E-2,9.853709106E0,9.854030004E0
2.609255458E0,4.340972900E-2,7.274871826E-2,9.857451324E0,9.857815346E0
2.619252458E0,4.146377563E-2,7.454498291E-2,9.861941986E0,9.862310882E0
2.629248458E0,4.340972900E-2,6.855743408E-2,9.865684204E0,9.866017907E0
2.639245458E0,4.760101318E-2,6.182144165E-2,9.855954437E0,9.856263268E0
2.649242458E0,4.370910645E-2,7.185058594E-2,9.850715332E0,9.851074335E0
2.659239458E0,4.445755005E-2,7.424560547E-2,9.850415955E0,9.850796078E0
2.669236458E0,5.029541016E-2,6.706054688E-2,9.845176849E0,9.845533705E0
2.679232458E0,4.445755005E-2,7.080276489E-2,9.865534515E0,9.865888748E0
2.689228458E0,4.400848389E-2,7.200027466E-2,9.870174866E0,9.870535582E0
2.699225458E0,4.071533203E-2,7.125183105E-2,9.863438873E0,9.863780258E0
2.709222458E0,4.535568237E-2,6.721023560E-2,9.860145721E0,9.860479096E0
2.719219458E0,4.580474854E-2,6.676116943E-2,9.861343231E0,9.861675591E0
2.729216458E0,4.251159668E-2,6.451583862E-2,9.852361908E0,9.852664852E0
2.739213458E0,4.520599365E-2,6.646179199E-2,9.865085449E0,9.865412899E0
2.749210458E0,4.640350342E-2,7.274871826E-2,9.867480469E0,9.867857744E0
2.759207458E0,4.296066284E-2,6.556365967E-2,9.863887939E0,9.864199384E0
2.769204458E0,4.266128540E-2,7.873626709E-2,9.858798523E0,9.859205227E0
2.779201458E0,4.026626587E-2,7.349716187E-2,9.858499146E0,9.858855340E0
2.789197458E0,4.251159668E-2,6.840774536E-2,9.860594788E0,9.860923710E0
2.799193458E0,4.191284180E-2,6.182144165E-2,9.856403503E0,9.856686492E0
2.809190458E0,4.340972900E-2,7.005432129E-2,9.855804749E0,9.856149312E0
2.819186458E0,4.176315308E-2,7.005432129E-2,9.864935760E0,9.865272897E0
2.829183458E0,4.415817261E-2,7.200027466E-2,9.860594788E0,9.860956523E0
2.839180458E0,4.490661621E-2,6.960525513E-2,9.857151947E0,9.857499987E0
2.849177458E0,4.430786133E-2,6.361770630E-2,9.857301636E0,9.857606501E0
2.859173458E0,5.284011841E-2,6.586303711E-2,9.857601013E0,9.857962657E0
2.869170458E0,4.176315308E-2,7.289840698E-2,9.868977356E0,9.869334952E0
2.879166458E0,4.400848389E-2,7.140151978E-2,9.861792297E0,9.862148967E0
2.889163458E0,4.475692749E-2,6.930587769E-2,9.864935760E0,9.865280738E0
2.899159458E0,4.520599365E-2,6.840774536E-2,9.862989807E0,9.863330631E0
2.909156458E0,4.071533203E-2,6.481521606E-2,9.866282959E0,9.866579862E0
2.919154458E0,3.847000122E-2,6.810836792E-2,9.862540741E0,9.862850935E0
2.929151458E0,3.906875610E-2,6.840774536E-2,9.851164398E0,9.851479381E0
2.939148458E0,4.625381470E-2,7.289840698E-2,9.856553192E0,9.856931288E0
2.949146458E0,4.206253052E-2,5.897735596E-2,9.865684204E0,9.865950152E0
2.959143458E0,3.802093506E-2,7.095245361E-2,9.857151947E0,9.857480629E0
2.969140458E0,4.221221924E-2,6.990463257E-2,9.865684204E0,9.866022164E0
2.979137458E0,4.745132446E-2,7.544311523E-2,9.856702881E0,9.857105811E0
2.989134458E0,4.430786133E-2,6.301895142E-2,9.854457550E0,9.854758657E0
2.999132458E0,3.757186890E-2,6.062393188E-2,9.851763153E0,9.852021322E0
3.009130458E0,4.385879517E-2,7.349716187E-2,9.859846344E0,9.860217815E0
3.019128458E0,3.847000122E-2,8.277786255E-2,9.863887939E0,9.864310285E0
3.029125458E0,4.296066284E-2,6.212081909E-2,9.857301636E0,9.857590991E0
3.039122458E0,4.475692749E-2,6.765930176E-2,9.859546967E0,9.859880697E0
3.049120458E0,4.191284180E-2,7.514373779E-2,9.862690430E0,9.863065739E0
3.059117458E0,3.936813354E-2,6.676116943E-2,9.853709106E0,9.854013906E0
3.069115458E0,4.805007935E-2,6.795867920E-2,9.859397278E0,9.859748571E0
3.079113458E0,4.191284180E-2,7.409591675E-2,9.858948212E0,9.859315733E0
3.089111458E0,4.086502075E-2,7.065307617E-2,9.850415955E0,9.850754097E0
3.099109458E0,4.011657715E-2,6.346801758E-2,9.865684204E0,9.865969914E0
3.109108458E0,4.460723877E-2,7.110214233E-2,9.865684204E0,9.866041260E0
3.119106458E0,4.640350342E-2,6.616241455E-2,9.852062531E0,9.852393966E0
3.129104458E0,4.071533203E-2,6.780899048E-2,9.856253815E0,9.856571161E0
3.139102458E0,4.745132446E-2,6.960525513E-2,9.859247589E0,9.859607474E0
3.149100458E0,3.712280273E-2,5.957611084E-2,9.860145721E0,9.860395584E0
3.159099458E0,4.041595459E-2,6.271957397E-2,9.855355682E0,9.855638123E0
3.169096458E0,4.206253052E-2,7.574249268E-2,9.859846344E0,9.860226981E0
3.179094458E0,4.595443726E-2,6.421646118E-2,9.858798523E0,9.859114761E0
3.189093458E0,4.834945679E-2,7.185058594E-2,9.862540741E0,9.862920969E0
3.199092458E0,5.014572144E-2,7.559280396E-2,9.857451324E0,9.857868709E0
3.209090458E0,4.655319214E-2,6.436614990E-2,9.856553192E0,9.856873289E0
3.219088458E0,4.745132446E-2,6.496490479E-2,9.859097900E0,9.859426123E0
3.229087458E0,4.864883423E-2,7.858657837E-2,9.851463776E0,9.851897334E0
3.239085458E0,4.011657715E-2,7.155120850E-2,9.861642609E0,9.861983769E0
3.249084458E0,4.161346436E-2,7.185058594E-2,9.864786072E0,9.865135500E0
3.259083458E0,4.939727783E-2,7.409591675E-2,9.854457550E0,9.854859913E0
3.269081458E0,4.311035156E-2,6.990463257E-2,9.847721558E0,9.848064025E0
3.279080458E0,4.281097412E-2,8.217910767E-2,9.849966888E0,9.850402727E0
3.289078458E0,4.954696655E-2,7.110214233E-2,9.852361908E0,9.852743049E0
3.299076458E0,4.430786133E-2,7.304809570E-2,9.854607239E0,9.854977577E0
3.309075458E0,3.861968994E-2,6.780899048E-2,9.854307861E0,9.854616835E0
3.319073458E0,4.176315308E-2,7.200027466E-2,9.856253815E0,9.856605271E0
3.329072458E0,4.730163574E-2,7.499404907E-2,9.861792297E0,9.862190876E0
3.339072458E0,4.011657715E-2,7.274871826E-2,9.852661285E0,9.853011525E0
3.349070458E0,4.071533203E-2,6.406677246E-2,9.860894165E0,9.861186340E0
3.359069458E0,5.239105225E-2,6.092330933E-2,9.859996033E0,9.860323435E0
3.369068458E0,4.595443726E-2,6.721023560E-2,9.860295410E0,9.860631552E0
3.379067458E0,4.894821167E-2,7.080276489E-2,9.866133270E0,9.866508737E0
3.389066458E0,4.505630493E-2,6.930587769E-2,9.855804749E0,9.856151410E0
3.399065458E0,3.472778320E-2,6.601272583E-2,9.854756927E0,9.855039208E0
3.409062458E0,3.712280273E-2,7.214996338E-2,9.867031403E0,9.867365019E0
3.419060375E0,4.655319214E-2,7.679031372E-2,9.855655060E0,9.856064154E0
3.429058375E0,4.176315308E-2,7.229965210E-2,9.857151947E0,9.857505562E0
3.439056375E0,4.685256958E-2,7.214996338E-2,9.871671753E0,9.872046595E0
3.449054375E0,4.475692749E-2,7.394622803E-2,9.855056305E0,9.855435353E0
3.459051375E0,4.326004028E-2,7.439529419E-2,9.860445099E0,9.860820637E0
3.469049375E0,4.939727783E-2,6.810836792E-2,9.861941986E0,9.862300876E0
3.479047375E0,4.565505981E-2,7.170089722E-2,9.851014709E0,9.851381437E0
3.489044375E0,4.251159668E-2,7.095245361E-2,9.857151947E0,9.857498973E0
3.499041375E0,3.682342529E-2,6.750961304E-2,9.855954437E0,9.856254430E0
3.509038375E0,4.505630493E-2,7.170089722E-2,9.857002258E0,9.857366008E0
3.519036375E0,4.685256958E-2,6.870712280E-2,9.859397278E0,9.859747994E0
3.529034375E0,4.595443726E-2,7.110214233E-2,9.864935760E0,9.865299027E0
3.539032375E0,4.161346436E-2,7.005432129E-2,9.864187317E0,9.864523846E0
3.549029375E0,3.891906738E-2,7.349716187E-2,9.864935760E0,9.865286315E0
3.559026375E0,4.760101318E-2,7.274871826E-2,9.861792297E0,9.862175498E0
3.569024375E0,4.954696655E-2,7.005432129E-2,9.854008484E0,9.854382056E0
3.579021375E0,4.760101318E-2,8.158035278E-2,9.854158173E0,9.854610824E0
3.589019375E0,5.403762817E-2,7.783813477E-2,9.870474243E0,9.870929066E0
3.599016375E0,4.670288086E-2,6.107299805E-2,9.849517822E0,9.849817887E0
3.609013375E0,4.475692749E-2,6.975494385E-2,9.864037628E0,9.864385803E0
3.619011375E0,4.715194702E-2,7.574249268E-2,9.857601013E0,9.858004766E0
3.629009375E0,4.984634399E-2,7.185058594E-2,9.868378601E0,9.868766051E0
3.639006375E0,4.984634399E-2,6.810836792E-2,9.859546967E0,9.859908204E0
3.649003375E0,4.011657715E-2,7.229965210E-2,9.852960663E0,9.853307587E0
3.659001375E0,3.667373657E-2,6.750961304E-2,9.852511597E0,9.852811136E0
3.668998375E0,4.326004028E-2,7.050338745E-2,9.858050079E0,9.858397107E0
3.678995375E0,4.340972900E-2,7.274871826E-2,9.856553192E0,9.856917247E0
3.688993375E0,4.655319214E-2,7.035369873E-2,9.857151947E0,9.857512939E0
3.698991375E0,4.490661621E-2,7.364685059E-2,9.851314087E0,9.851691718E0
3.708989375E0,3.652404785E-2,6.601272583E-2,9.853260040E0,9.853548859E0
3.718987375E0,4.086502075E-2,6.735992432E-2,9.862391052E0,9.862705743E0
3.728985375E0,3.772155762E-2,7.125183105E-2,9.864486694E0,9.864816140E0
3.738983375E0,3.547622681E-2,7.738906860E-2,9.857002258E0,9.857369890E0
3.748981375E0,4.026626587E-2,7.110214233E-2,9.855355682E0,9.855694421E0
3.758979375E0,4.161346436E-2,7.020401001E-2,9.862840118E0,9.863177758E0
3.768976375E0,4.056564331E-2,7.454498291E-2,9.862540741E0,9.862905880E0
3.778975375E0,4.430786133E-2,6.616241455E-2,9.858798523E0,9.859120091E0
3.788973375E0,4.805007935E-2,5.867797852E-2,9.854008484E0,9.854300336E0
3.798971375E0,3.727249146E-2,6.496490479E-2,9.862391052E0,9.862675446E0
3.808969375E0,4.311035156E-2,6.840774536E-2,9.865384827E0,9.865716188E0
3.818967375E0,4.206253052E-2,7.559280396E-2,9.863738251E0,9.864117589E0
3.828965375E0,4.535568237E-2,6.795867920E-2,9.856702881E0,9.857041503E0
3.838963375E0,3.682342529E-2,6.346801758E-2,9.864187317E0,9.864460227E0
3.848961375E0,4.221221924E-2,6.870712280E-2,9.859696655E0,9.860026403E0
3.858958375E0,4.625381470E-2,6.376739502E-2,9.859846344E0,9.860161034E0
3.868955375E0,4.595443726E-2,6.271957397E-2,9.845476227E0,9.845783244E0
3.878953375E0,4.385879517E-2,7.035369873E-2,9.867031403E0,9.867379689E0
3.888951375E0,4.191284180E-2,8.008346558E-2,9.864187317E0,9.864601435E0
3.898949375E0,4.520599365E-2,7.125183105E-2,9.859247589E0,9.859608685E0
3.908947375E0,4.296066284E-2,7.229965210E-2,9.850865021E0,9.851224011E0
3.918945375E0,4.385879517E-2,7.679031372E-2,9.860894165E0,9.861290690E0
3.928942375E0,4.939727783E-2,6.795867920E-2,9.862989807E0,9.863347627E0
3.938939375E0,4.296066284E-2,7.214996338E-2,9.855804749E0,9.856162462E0
3.948936375E0,4.400848389E-2,7.065307617E-2,9.854457550E0,9.854809090E0
3.958934375E0,4.370910645E-2,7.409591675E-2,9.863738251E0,9.864113390E0
3.968931375E0,4.281097412E-2,7.155120850E-2,9.860295410E0,9.860647947E0
3.978929375E0,4.221221924E-2,6.107299805E-2,9.863438873E0,9.863718274E0
3.988927375E0,5.224136353E-2,6.481521606E-2,9.863738251E0,9.864089540E0
3.998925375E0,4.655319214E-2,7.110214233E-2,9.857900391E0,9.858266725E0
4.008922375E0,4.116439819E-2,6.975494385E-2,9.852212219E0,9.852545147E0
4.018918375E0,4.640350342E-2,6.870712280E-2,9.862091675E0,9.862440172E0
4.028916375E0,3.592529297E-2,6.825805664E-2,9.852212219E0,9.852514167E0
4.038915375E0,4.326004028E-2,7.155120850E-2,9.857451324E0,9.857805923E0
4.048913375E0,4.041595459E-2,7.679031372E-2,9.845775604E0,9.846158005E0
4.058911375E0,4.176315308E-2,6.646179199E-2,9.864786072E0,9.865098356E0
4.068908375E0,3.832031250E-2,7.394622803E-2,9.865684204E0,9.866035744E0
4.078905375E0,4.191284180E-2,7.155120850E-2,9.858948212E0,9.859296938E0
4.088902375E0,3.891906738E-2,7.514373779E-2,9.857900391E0,9.858263609E0
4.098900375E0,4.251159668E-2,6.795867920E-2,9.868677979E0,9.869003529E0
4.108897375E0,4.730163574E-2,6.077362061E-2,9.857750702E0,9.858051520E0
4.118895375E0,3.981719971E-2,6.855743408E-2,9.864037628E0,9.864356231E0
4.128892375E0,4.805007935E-2,7.454498291E-2,9.856553192E0,9.856952196E0
4.138889375E0,4.131408691E-2,7.574249268E-2,9.855355682E0,9.855733327E0
4.148886375E0,3.772155762E-2,7.664062500E-2,9.847122803E0,9.847493295E0
4.158883375E0,4.565505981E-2,6.421646118E-2,9.861492920E0,9.861807682E0
4.168881375E0,4.191284180E-2,7.200027466E-2,9.860594788E0,9.860946724E0
4.178878375E0,3.757186890E-2,6.975494385E-2,9.863289185E0,9.863607400E0
4.188875375E0,4.026626587E-2,5.957611084E-2,9.860594788E0,9.860856973E0
4.198873375E0,4.655319214E-2,7.020401001E-2,9.856403503E0,9.856763456E0
4.208870375E0,4.430786133E-2,7.289840698E-2,9.854158173E0,9.854527419E0
4.218868375E0,5.149291992E-2,6.616241455E-2,9.851014709E0,9.851371468E0
4.228865375E0,4.879852295E-2,7.170089722E-2,9.864337006E0,9.864718287E0
4.238862375E0,3.248245239E-2,6.691085815E-2,9.872569885E0,9.872850060E0
4.248860375E0,4.311035156E-2,6.691085815E-2,9.865534515E0,9.865855606E0
4.258857375E0,4.385879517E-2,6.750961304E-2,9.852810974E0,9.853139867E0
4.268855375E0,4.550537109E-2,7.080276489E-2,9.859097900E0,9.859457144E0
4.278852375E0,3.861968994E-2,5.658233643E-2,9.853559418E0,9.853797554E0
4.288849375E0,3.847000122E-2,7.035369873E-2,9.857451324E0,9.857777447E0
4.298847375E0,4.221221924E-2,7.080276489E-2,9.861941986E0,9.862286481E0
4.308844375E0,5.089416504E-2,6.810836792E-2,9.861043854E0,9.861410389E0
4.318841375E0,4.655319214E-2,7.289840698E-2,9.862391052E0,9.862770333E0
4.328838375E0,4.879852295E-2,6.930587769E-2,9.858199768E0,9.858564159E0
4.338836375E0,4.520599365E-2,7.589218140E-2,9.865085449E0,9.865480937E0
4.348833375E0,3.921844482E-2,7.110214233E-2,9.856702881E0,9.857037348E0
4.358830375E0,4.490661621E-2,7.095245361E-2,9.866582336E0,9.866939640E0
4.368829375E0,4.550537109E-2,7.274871826E-2,9.868977356E0,9.869350392E0
4.378827375E0,5.014572144E-2,6.541397095E-2,9.854008484E0,9.854353189E0
4.388826375E0,3.936813354E-2,6.077362061E-2,9.859696655E0,9.859962546E0
4.398825375E0,3.682342529E-2,7.574249268E-2,9.856403503E0,9.856763308E0
4.408824375E0,3.353027344E-2,8.053253174E-2,9.860295410E0,9.860681282E0
4.418822375E0,3.936813354E-2,7.304809570E-2,9.861642609E0,9.861991727E0
4.428820208E0,4.670288086E-2,7.095245361E-2,9.862241364E0,9.862607167E0
4.438819208E0,4.176315308E-2,7.933502197E-2,9.862989807E0,9.863397292E0
4.448817208E0,4.610412598E-2,7.544311523E-2,9.858948212E0,9.859344658E0
4.458814208E0,4.430786133E-2,7.304809570E-2,9.861043854E0,9.861413950E0
4.468811208E0,3.712280273E-2,7.035369873E-2,9.858050079E0,9.858371017E0
4.478808208E0,4.340972900E-2,6.945556641E-2,9.862690430E0,9.863030518E0
4.488806208E0,4.221221924E-2,7.110214233E-2,9.857451324E0,9.857798131E0
4.498804208E0,4.251159668E-2,6.795867920E-2,9.858349457E0,9.858675349E0
4.508801208E0,4.430786133E-2,7.229965210E-2,9.862690430E0,9.863054950E0
4.518799208E0,3.502716064E-2,7.155120850E-2,9.857750702E0,9.858072600E0
4.528797208E0,4.056564331E-2,8.217910767E-2,9.860594788E0,9.861020664E0
4.538795208E0,4.370910645E-2,7.394622803E-2,9.849817200E0,9.850191744E0
4.548793208E0,3.697311401E-2,7.649093628E-2,9.872719574E0,9.873085114E0
4.558791208E0,3.996688843E-2,6.885681152E-2,9.862840118E0,9.863161451E0
4.568789208E0,3.921844482E-2,7.529342651E-2,9.865534515E0,9.865899780E0
4.578786208E0,4.520599365E-2,7.020401001E-2,9.862840118E0,9.863193569E0
4.588783208E0,4.430786133E-2,6.915618896E-2,9.852661285E0,9.853003612E0
4.598781208E0,4.595443726E-2,6.661148071E-2,9.861941986E0,9.862274009E0
4.608778208E0,4.266128540E-2,6.631210327E-2,9.856403503E0,9.856718891E0
4.618776208E0,4.161346436E-2,6.197113037E-2,9.862241364E0,9.862523856E0
4.628774208E0,4.939727783E-2,6.601272583E-2,9.867929535E0,9.868273966E0
4.638771208E0,4.685256958E-2,6.930587769E-2,9.859696655E0,9.860051552E0
4.648769208E0,4.355941772E-2,7.679031372E-2,9.856104126E0,9.856499516E0
4.658766208E0,3.802093506E-2,7.589218140E-2,9.855505371E0,9.855870907E0
4.668764208E0,4.625381470E-2,7.529342651E-2,9.868827667E0,9.869223274E0
4.678761208E0,4.460723877E-2,6.945556641E-2,9.861792297E0,9.862137760E0
4.688758208E0,4.176315308E-2,7.379653931E-2,9.858050079E0,9.858414754E0
4.698755208E0,5.014572144E-2,6.900650024E-2,9.858349457E0,9.858718502E0
4.708753208E0,4.790039063E-2,7.200027466E-2,9.854457550E0,9.854836990E0
4.718750208E0,5.284011841E-2,7.768844604E-2,9.850715332E0,9.851163389E0
4.728747208E0,4.475692749E-2,7.409591675E-2,9.862391052E0,9.862770942E0
4.738744208E0,3.472778320E-2,6.975494385E-2,9.861193542E0,9.861501400E0
4.748741208E0,3.263214111E-2,6.646179199E-2,9.863289185E0,9.863567081E0
4.758738208E0,3.742218018E-2,6.077362061E-2,9.853709106E0,9.853967577E0
4.768735208E0,3.936813354E-2,7.005432129E-2,9.868528290E0,9.868855459E0
4.778733208E0,3.936813354E-2,7.170089722E-2,9.864486694E0,9.864825828E0
4.788729208E0,3.607498169E-2,7.843688965E-2,9.866582336E0,9.866960056E0
4.798727208E0,3.727249146E-2,7.604187012E-2,9.872420197E0,9.872783404E0
4.808724208E0,4.430786133E-2,6.137237549E-2,9.871522064E0,9.871812276E0
4.818720208E0,4.700225830E-2,6.915618896E-2,9.859846344E0,9.860200896E0
4.828716208E0,3.996688843E-2,8.187973022E-2,9.863887939E0,9.864308740E0
4.838713208E0,4.326004028E-2,8.277786255E-2,9.861642609E0,9.862084899E0
4.848710208E0,3.802093506E-2,7.095245361E-2,9.850715332E0,9.851044229E0
4.858708208E0,3.847000122E-2,7.409591675E-2,9.856553192E0,9.856906765E0
4.868705208E0,4.296066284E-2,7.095245361E-2,9.863887939E0,9.864236674E0
4.878702208E0,4.041595459E-2,6.601272583E-2,9.865684204E0,9.865987834E0
4.888699208E0,3.996688843E-2,7.574249268E-2,9.861043854E0,9.861415728E0
4.898696208E0,3.966751099E-2,7.334747314E-2,9.857002258E0,9.857354964E0
4.908693208E0,4.086502075E-2,6.361770630E-2,9.866282959E0,9.866572687E0
4.918691208E0,4.565505981E-2,8.143066406E-2,9.861642609E0,9.862084479E0
4.928688208E0,5.014572144E-2,7.289840698E-2,9.854307861E0,9.854705079E0
4.938685208E0,4.819976807E-2,7.469467163E-2,9.856553192E0,9.856954060E0
4.948683208E0,3.951782227E-2,7.948471069E-2,9.857900391E0,9.858300035E0
4.958679208E0,4.086502075E-2,6.765930176E-2,9.864187317E0,9.864503999E0
4.968677208E0,3.622467041E-2,6.691085815E-2,9.858050079E0,9.858343708E0
4.978674208E0,4.161346436E-2,7.708969116E-2,9.852960663E0,9.853350107E0
4.988672208E0,4.041595459E-2,7.484436035E-2,9.856553192E0,9.856920206E0
4.998670208E0,3.891906738E-2,6.885681152E-2,9.866732025E0,9.867049043E0
5.008668208E0,4.116439819E-2,7.170089722E-2,9.855056305E0,9.855403102E0
5.018665208E0,4.355941772E-2,7.065307617E-2,9.858349457E0,9.858698864E0
5.028662208E0,3.502716064E-2,7.170089722E-2,9.857151947E0,9.857474952E0
5.038660208E0,3.817062378E-2,7.155120850E-2,9.857750702E0,9.858084270E0
5.048657208E0,4.206253052E-2,7.080276489E-2,9.868677979E0,9.869021600E0
5.058654208E0,4.819976807E-2,7.379653931E-2,9.860145721E0,9.860539681E0
5.068650208E0,4.370910645E-2,6.945556641E-2,9.858499146E0,9.858840701E0
5.078648208E0,4.236190796E-2,6.616241455E-2,9.862690430E0,9.863003321E0
5.088645208E0,4.296066284E-2,7.903564453E-2,9.856253815E0,9.856664320E0
5.098642208E0,4.670288086E-2,7.155120850E-2,9.860445099E0,9.860815295E0
5.108639208E0,3.622467041E-2,6.810836792E-2,9.862091675E0,9.862393380E0
5.118636208E0,3.712280273E-2,7.394622803E-2,9.865684204E0,9.866031166E0
5.128634208E0,4.580474854E-2,6.511459351E-2,9.858948212E0,9.859269640E0
5.138633208E0,4.071533203E-2,8.202941895E-2,9.856253815E0,9.856679249E0
5.148630208E0,4.445755005E-2,7.319778442E-2,9.852062531E0,9.852434750E0
5.158628208E0,3.727249146E-2,6.840774536E-2,9.866881714E0,9.867189246E0
5.168626208E0,4.445755005E-2,6.271957397E-2,9.852661285E0,9.852961211E0
5.178624208E0,4.116439819E-2,5.897735596E-2,9.864037628E0,9.864299832E0
5.188621208E0,4.385879517E-2,5.658233643E-2,9.867630157E0,9.867889849E0
5.198618208E0,4.655319214E-2,7.035369873E-2,9.866582336E0,9.866942984E0
5.208616208E0,4.326004028E-2,7.544311523E-2,9.865534515E0,9.865917817E0
5.218614208E0,4.475692749E-2,7.185058594E-2,9.853409729E0,9.853773337E0
5.228611208E0,4.116439819E-2,7.439529419E-2,9.863438873E0,9.863805329E0
5.238609208E0,4.655319214E-2,7.454498291E-2,9.865684204E0,9.866075662E0
5.248606208E0,4.296066284E-2,6.825805664E-2,9.858349457E0,9.858679364E0
5.258604208E0,3.712280273E-2,7.708969116E-2,9.864486694E0,9.864857762E0
5.268602208E0,3.891906738E-2,7.394622803E-2,9.869576111E0,9.869929855E0
5.278599208E0,3.891906738E-2,7.050338745E-2,9.858648834E0,9.858977749E0
5.288596208E0,4.266128540E-2,6.346801758E-2,9.867480469E0,9.867776800E0
5.298594208E0,4.535568237E-2,7.095245361E-2,9.871821442E0,9.872180608E0
5.308592208E0,4.415817261E-2,7.604187012E-2,9.859996033E0,9.860388130E0
5.318589208E0,4.430786133E-2,7.544311523E-2,9.851763153E0,9.852151647E0
5.328587208E0,3.592529297E-2,6.256988525E-2,9.853709106E0,9.853973248E0
5.338584208E0,4.595443726E-2,8.367599487E-2,9.855804749E0,9.856267079E0
5.348582208E0,4.580474854E-2,6.735992432E-2,9.857451324E0,9.857787888E0
5.358579208E0,4.176315308E-2,6.391708374E-2,9.863738251E0,9.864033751E0
5.368576208E0,4.340972900E-2,7.484436035E-2,9.854307861E0,9.854687692E0
5.378573208E0,4.655319214E-2,6.526428223E-2,9.858798523E0,9.859124451E0
5.388570208E0,4.790039063E-2,6.765930176E-2,9.857601013E0,9.857949582E0
5.398568208E0,4.221221924E-2,6.960525513E-2,9.870324554E0,9.870660240E0
5.408565208E0,5.044509888E-2,7.439529419E-2,9.861792297E0,9.862201919E0
5.418563208E0,4.236190796E-2,6.721023560E-2,9.863588562E0,9.863908509E0
5.428560500E0,4.415817261E-2,6.930587769E-2,9.853409729E0,9.853752409E0
5.438558500E0,4.370910645E-2,7.274871826E-2,9.858948212E0,9.859313501E0
5.448556500E0,4.311035156E-2,6.870712280E-2,9.854906616E0,9.855240412E0
5.458555500E0,4.939727783E-2,6.676116943E-2,9.864786072E0,9.865135650E0
5.468553500E0,4.326004028E-2,6.975494385E-2,9.868677979E0,9.869019314E0
5.478552500E0,4.730163574E-2,7.095245361E-2,9.857002258E0,9.857371111E0
5.488551500E0,4.939727783E-2,6.780899048E-2,9.859846344E0,9.860203247E0
5.498548500E0,3.742218018E-2,6.406677246E-2,9.856852570E0,9.857131812E0
5.508546500E0,4.026626587E-2,7.110214233E-2,9.866432648E0,9.866771006E0
5.518546500E0,4.445755005E-2,7.379653931E-2,9.864786072E0,9.865162272E0
5.528543500E0,5.194198608E-2,6.616241455E-2,9.860145721E0,9.860504504E0
5.538541500E0,4.760101318E-2,7.110214233E-2,9.854008484E0,9.854379969E0
5.548539500E0,4.415817261E-2,6.945556641E-2,9.853858795E0,9.854202513E0
5.558537500E0,3.802093506E-2,6.810836792E-2,9.867929535E0,9.868237819E0
5.568535500E0,4.236190796E-2,7.050338745E-2,9.861642609E0,9.861985611E0
5.578533500E0,4.011657715E-2,7.259902954E-2,9.851613464E0,9.851962637E0
5.588531500E0,4.326004028E-2,6.765930176E-2,9.865534515E0,9.865861366E0
5.598529500E0,4.101470947E-2,6.646179199E-2,9.868677979E0,9.868987001E0
5.608527500E0,3.891906738E-2,6.945556641E-2,9.852661285E0,9.852982958E0
5.618524500E0,3.547622681E-2,6.406677246E-2,9.854906616E0,9.855178716E0
5.628522500E0,4.056564331E-2,7.334747314E-2,9.857301636E0,9.857657986E0
5.638519500E0,3.757186890E-2,8.008346558E-2,9.862091675E0,9.862488388E0
5.648516500E0,3.891906738E-2,7.020401001E-2,9.859696655E0,9.860023399E0
5.658514500E0,4.745132446E-2,6.586303711E-2,9.865983582E0,9.866317530E0
5.668512500E0,3.652404785E-2,6.152206421E-2,9.865684204E0,9.865943634E0
5.678510500E0,4.146377563E-2,8.008346558E-2,9.863438873E0,9.863851125E0
5.688508500E0,4.775070190E-2,6.721023560E-2,9.856702881E0,9.857047683E0
5.698506500E0,4.340972900E-2,6.242019653E-2,9.851613464E0,9.851906848E0
5.708504500E0,4.191284180E-2,6.990463257E-2,9.858349457E0,9.858686391E0
5.718502500E0,4.370910645E-2,6.735992432E-2,9.855505371E0,9.855832485E0
5.728499500E0,4.355941772E-2,7.185058594E-2,9.854158173E0,9.854516387E0
5.738497500E0,3.876937866E-2,7.933502197E-2,9.844129028E0,9.844525049E0
5.748495500E0,3.637435913E-2,7.244934082E-2,9.855205994E0,9.855539416E0
5.758493500E0,3.727249146E-2,7.020401001E-2,9.854756927E0,9.855077470E0
5.768490500E0,4.385879517E-2,6.795867920E-2,9.864486694E0,9.864818281E0
5.778488500E0,4.625381470E-2,6.945556641E-2,9.859397278E0,9.859750411E0
5.788486500E0,4.984634399E-2,7.289840698E-2,9.858499146E0,9.858894676E0
5.798483500E0,3.742218018E-2,7.319778442E-2,9.857601013E0,9.857943805E0
5.808479500E0,4.011657715E-2,7.664062500E-2,9.854756927E0,9.855136591E0
5.818477500E0,4.415817261E-2,7.289840698E-2,9.847871246E0,9.848240056E0
5.828473500E0,3.847000122E-2,6.945556641E-2,9.859546967E0,9.859866652E0
5.838470500E0,4.086502075E-2,6.376739502E-2,9.857301636E0,9.857592595E0
5.848467500E0,4.640350342E-2,6.765930176E-2,9.851613464E0,9.851955081E0
5.858464500E0,4.625381470E-2,6.107299805E-2,9.852810974E0,9.853108820E0
5.868461500E0,4.535568237E-2,6.825805664E-2,9.852661285E0,9.853002116E0
5.878459500E0,4.715194702E-2,7.319778442E-2,9.853559418E0,9.853944105E0
5.888456500E0,4.460723877E-2,7.649093628E-2,9.865833893E0,9.866231250E0
5.898454500E0,3.981719971E-2,6.900650024E-2,9.864636383E0,9.864958098E0
5.908451500E0,4.894821167E-2,6.586303711E-2,9.854906616E0,9.855248261E0
5.918449500E0,4.550537109E-2,6.436614990E-2,9.862540741E0,9.862855753E0
5.928446500E0,4.176315308E-2,7.125183105E-2,9.861642609E0,9.861988437E0
5.938444500E0,3.921844482E-2,6.601272583E-2,9.856702881E0,9.857001950E0
5.948441500E0,4.730163574E-2,6.646179199E-2,9.860744476E0,9.861081900E0
5.958439500E0,4.266128540E-2,7.274871826E-2,9.865534515E0,9.865894974E0
5.968437500E0,4.146377563E-2,7.319778442E-2,9.871072998E0,9.871431471E0
5.978435500E0,4.760101318E-2,7.708969116E-2,9.862540741E0,9.862956886E0
5.988433500E0,4.071533203E-2,7.394622803E-2,9.863588562E0,9.863949772E0
5.998430500E0,3.996688843E-2,8.023315430E-2,9.852960663E0,9.853368385E0
6.008428500E0,3.712280273E-2,7.095245361E-2,9.850116577E0,9.850442068E0
6.018426500E0,3.652404785E-2,6.795867920E-2,9.860145721E0,9.860447558E0
6.028425500E0,4.041595459E-2,7.170089722E-2,9.856702881E0,9.857046523E0
6.038423500E0,4.430786133E-2,7.529342651E-2,9.872270508E0,9.872657052E0
6.048421500E0,3.847000122E-2,6.840774536E-2,9.853709106E0,9.854021652E0
6.058420500E0,4.655319214E-2,6.511459351E-2,9.864636383E0,9.864961129E0
6.068417500E0,4.445755005E-2,6.885681152E-2,9.855954437E0,9.856295227E0
6.078414500E0,4.326004028E-2,7.439529419E-2,9.867031403E0,9.867406690E0
6.088412500E0,4.086502075E-2,6.945556641E-2,9.870025177E0,9.870354149E0
6.098411500E0,4.041595459E-2,7.514373779E-2,9.858648834E0,9.859018048E0
6.108409500E0,4.191284180E-2,6.346801758E-2,9.859546967E0,9.859840326E0
6.118407500E0,4.101470947E-2,7.723937988E-2,9.856702881E0,9.857090839E0
6.128405500E0,4.775070190E-2,7.484436035E-2,9.852361908E0,9.852761896E0
6.138403500E0,4.131408691E-2,6.361770630E-2,9.858199768E0,9.858491605E0
6.148401500E0,4.176315308E-2,7.394622803E-2,9.852511597E0,9.852877598E0
6.158398500E0,4.161346436E-2,6.885681152E-2,9.856104126E0,9.856432493E0
6.168395500E0,4.670288086E-2,7.020401001E-2,9.865384827E0,9.865745159E0
6.178393500E0,4.999603271E-2,6.825805664E-2,9.863289185E0,9.863652077E0
6.188390500E0,4.146377563E-2,7.214996338E-2,9.867480469E0,9.867831356E0
6.198388500E0,4.790039063E-2,7.050338745E-2,9.864786072E0,9.865154303E0
6.208386500E0,4.311035156E-2,7.185058594E-2,9.863289185E0,9.863645094E0
6.218384500E0,4.580474854E-2,6.810836792E-2,9.860744476E0,9.861086069E0
6.228382500E0,4.281097412E-2,7.020401001E-2,9.862241364E0,9.862584149E0
6.238380500E0,4.595443726E-2,7.200027466E-2,9.867480469E0,9.867850153E0
6.248378500E0,4.116439819E-2,6.496490479E-2,9.866881714E0,9.867181447E0
6.258375500E0,3.951782227E-2,7.723937988E-2,9.852810974E0,9.853192968E0
6.268373500E0,3.622467041E-2,7.229965210E-2,9.857151947E0,9.857483653E0
6.278371500E0,4.131408691E-2,6.661148071E-2,9.858499146E0,9.858810747E0
6.288368500E0,4.071533203E-2,7.499404907E-2,9.862989807E0,9.863358950E0
6.298366500E0,4.311035156E-2,7.244934082E-2,9.864935760E0,9.865295990E0
6.308364500E0,4.340972900E-2,7.379653931E-2,9.862091675E0,9.862463310E0
6.318362500E0,4.595443726E-2,7.200027466E-2,9.858798523E0,9.859168533E0
6.328359500E0,4.086502075E-2,7.499404907E-2,9.850565643E0,9.850935872E0
6.338357500E0,4.490661621E-2,7.394622803E-2,9.866282959E0,9.866662256E0
6.348354500E0,4.281097412E-2,7.828720093E-2,9.862241364E0,9.862644999E0
6.358352500E0,4.221221924E-2,7.334747314E-2,9.848619690E0,9.848983273E0
6.368349500E0,5.373825073E-2,7.244934082E-2,9.865983582E0,9.866395935E0
6.378346500E0,4.326004028E-2,7.559280396E-2,9.855056305E0,9.855441161E0
6.388344500E0,4.191284180E-2,7.274871826E-2,9.863588562E0,9.863945883E0
6.398343500E0,4.685256958E-2,6.750961304E-2,9.855655060E0,9.855997634E0
6.408340500E0,3.906875610E-2,6.990463257E-2,9.868079224E0,9.868404156E0
6.418338500E0,4.011657715E-2,6.900650024E-2,9.864337006E0,9.864659943E0
6.428338458E0,3.742218018E-2,6.735992432E-2,9.866732025E0,9.867032920E0
6.438337458E0,3.547622681E-2,6.900650024E-2,9.862391052E0,9.862696271E0
6.448336458E0,4.176315308E-2,6.780899048E-2,9.867929535E0,9.868250885E0
6.458334458E0,4.640350342E-2,7.095245361E-2,9.865384827E0,9.865749100E0
6.468333458E0,4.520599365E-2,7.634124756E-2,9.863289185E0,9.863688210E0
6.478331458E0,4.655319214E-2,8.038284302E-2,9.859696655E0,9.860134215E0
6.488329458E0,4.939727783E-2,6.765930176E-2,9.869576111E0,9.869931635E0
6.498327458E0,4.221221924E-2,6.122268677E-2,9.852361908E0,9.852642552E0
6.508326458E0,4.296066284E-2,7.155120850E-2,9.862241364E0,9.862594481E0
6.518324458E0,4.550537109E-2,7.319778442E-2,9.855355682E0,9.855732559E0
6.528322458E0,4.879852295E-2,7.723937988E-2,9.861941986E0,9.862365181E0
6.538320458E0,4.954696655E-2,7.035369873E-2,9.850715332E0,9.851091163E0
6.548318458E0,3.891906738E-2,6.676116943E-2,9.865235138E0,9.865537800E0
6.558316458E0,3.667373657E-2,6.945556641E-2,9.867929535E0,9.868242110E0
6.568314458E0,3.577560425E-2,6.945556641E-2,9.863139496E0,9.863448924E0
6.578313458E0,4.505630493E-2,7.544311523E-2,9.859846344E0,9.860237911E0
6.588312458E0,4.565505981E-2,7.110214233E-2,9.860445099E0,9.860807140E0
6.598311458E0,4.206253052E-2,6.930587769E-2,9.857151947E0,9.857485332E0
6.608309458E0,4.864883423E-2,6.975494385E-2,9.854457550E0,9.854824507E0
6.618308458E0,4.924758911E-2,5.792953491E-2,9.864337006E0,9.864630034E0
6.628308458E0,4.625381470E-2,7.125183105E-2,9.862241364E0,9.862607209E0
6.638307458E0,4.505630493E-2,7.694000244E-2,9.858648834E0,9.859052017E0
6.648307458E0,4.221221924E-2,6.750961304E-2,9.859097900E0,9.859419396E0
6.658305458E0,4.086502075E-2,6.870712280E-2,9.850266266E0,9.850590649E0
6.668306458E0,3.951782227E-2,7.798782349E-2,9.859397278E0,9.859784908E0
6.678305458E0,3.323089600E-2,6.436614990E-2,9.859846344E0,9.860112434E0
6.688305458E0,4.340972900E-2,7.214996338E-2,9.864786072E0,9.865145425E0
6.698304458E0,5.388793945E-2,6.915618896E-2,9.864337006E0,9.864726608E0
6.708303458E0,4.924758911E-2,7.050338745E-2,9.855804749E0,9.856179954E0
6.718301458E0,4.700225830E-2,6.810836792E-2,9.862391052E0,9.862738222E0
6.728299458E0,4.924758911E-2,6.616241455E-2,9.868378601E0,9.868723271E0
6.738298458E0,4.011657715E-2,6.750961304E-2,9.863738251E0,9.864050850E0
6.748296458E0,3.547622681E-2,7.873626709E-2,9.865684204E0,9.866062172E0
6.758295458E0,4.460723877E-2,6.706054688E-2,9.863139496E0,9.863468337E0
6.768293458E0,4.206253052E-2,6.466552734E-2,9.876461792E0,9.876763054E0
6.778292458E0,4.176315308E-2,6.870712280E-2,9.861043854E0,9.861371645E0
6.788290458E0,4.266128540E-2,6.721023560E-2,9.860445099E0,9.860766438E0
6.798287458E0,4.535568237E-2,6.840774536E-2,9.860295410E0,9.860637015E0
6.808284458E0,4.370910645E-2,7.334747314E-2,9.865235138E0,9.865604627E0
6.818281458E0,4.281097412E-2,6.571334839E-2,9.864337006E0,9.864648782E0
6.828279458E0,4.131408691E-2,7.679031372E-2,9.861043854E0,9.861429384E0
6.838276458E0,4.670288086E-2,7.364685059E-2,9.866432648E0,9.866818039E0
6.848273458E0,4.281097412E-2,7.259902954E-2,9.866881714E0,9.867241669E0
6.858270458E0,4.670288086E-2,7.274871826E-2,9.870474243E0,9.870852816E0
6.868268458E0,4.281097412E-2,7.649093628E-2,9.857750702E0,9.858140420E0
6.878265458E0,4.251159668E-2,6.556365967E-2,9.859546967E0,9.859856602E0
6.888263458E0,3.921844482E-2,7.080276489E-2,9.862540741E0,9.862872857E0
6.898260458E0,4.191284180E-2,7.185058594E-2,9.864187317E0,9.864538034E0
6.908257458E0,4.894821167E-2,7.694000244E-2,9.859846344E0,9.860268030E0
6.918256458E0,3.876937866E-2,6.601272583E-2,9.857151947E0,9.857449226E0
6.928254458E0,3.936813354E-2,6.721023560E-2,9.863139496E0,9.863447054E0
6.938253458E0,4.101470947E-2,8.427474976E-2,9.858798523E0,9.859244026E0
6.948251458E0,5.463638306E-2,7.574249268E-2,9.850565643E0,9.851008352E0
6.958249458E0,4.116439819E-2,6.481521606E-2,9.856104126E0,9.856403201E0
6.968247458E0,3.981719971E-2,7.125183105E-2,9.868228912E0,9.868566466E0
6.978245458E0,4.101470947E-2,7.334747314E-2,9.861792297E0,9.862150342E0
6.988243458E0,4.460723877E-2,7.529342651E-2,9.853110352E0,9.853498998E0
6.998240458E0,4.266128540E-2,6.556365967E-2,9.865235138E0,9.865545241E0
7.008238458E0,4.355941772E-2,5.792953491E-2,9.868079224E0,9.868345394E0
7.018236458E0,4.385879517E-2,7.394622803E-2,9.860445099E0,9.860819904E0
7.028233458E0,4.251159668E-2,7.439529419E-2,9.862840118E0,9.863212311E0
7.038230458E0,4.116439819E-2,7.589218140E-2,9.858349457E0,9.858727511E0
7.048228458E0,4.041595459E-2,7.873626709E-2,9.861492920E0,9.861890055E0
7.058225458E0,3.712280273E-2,7.664062500E-2,9.854906616E0,9.855274542E0
7.068221458E0,4.116439819E-2,7.604187012E-2,9.850865021E0,9.851244517E0
7.078218458E0,3.682342529E-2,6.990463257E-2,9.864486694E0,9.864803108E0
7.088215458E0,3.607498169E-2,7.858657837E-2,9.863289185E0,9.863668222E0
7.098212458E0,3.996688843E-2,6.436614990E-2,9.864187317E0,9.864478282E0
7.108209458E0,4.670288086E-2,7.110214233E-2,9.849667511E0,9.850034860E0
7.118206458E0,3.397933960E-2,7.424560547E-2,9.857151947E0,9.857490122E0
7.128203458E0,5.298980713E-2,6.855743408E-2,9.853858795E0,9.854239757E0
7.138199458E0,4.730163574E-2,6.780899048E-2,9.855505371E0,9.855852151E0
7.148196458E0,4.475692749E-2,7.050338745E-2,9.858349457E0,9.858703156E0
7.158192458E0,4.505630493E-2,7.185058594E-2,9.869725800E0,9.870090169E0
7.168189458E0,4.161346436E-2,6.990463257E-2,9.869276733E0,9.869612028E0
7.178185458E0,4.520599365E-2,6.975494385E-2,9.857301636E0,9.857652097E0
7.188182458E0,4.281097412E-2,6.825805664E-2,9.864636383E0,9.864965429E0
7.198178458E0,3.876937866E-2,7.020401001E-2,9.859247589E0,9.859573758E0
7.208175458E0,3.757186890E-2,7.559280396E-2,9.859996033E0,9.860357381E0
7.218172458E0,4.640350342E-2,6.765930176E-2,9.860744476E0,9.861085777E0
7.228169458E0,4.490661621E-2,7.110214233E-2,9.854906616E0,9.855265422E0
7.238167458E0,3.502716064E-2,7.499404907E-2,9.867480469E0,9.867827614E0
7.248165458E0,3.832031250E-2,7.020401001E-2,9.869576111E0,9.869900185E0
7.258162458E0,4.700225830E-2,7.574249268E-2,9.856852570E0,9.857255638E0
7.268158458E0,4.535568237E-2,7.963439941E-2,9.859846344E0,9.860272243E0
7.278155458E0,4.011657715E-2,7.020401001E-2,9.864187317E0,9.864518709E0
7.288152458E0,4.251159668E-2,6.107299805E-2,9.860744476E0,9.861025240E0
7.298149458E0,3.936813354E-2,6.496490479E-2,9.870025177E0,9.870317486E0
7.308147458E0,3.622467041E-2,6.481521606E-2,9.864037628E0,9.864317086E0
7.318143458E0,4.176315308E-2,6.286926270E-2,9.858349457E0,9.858638380E0
7.328141458E0,4.445755005E-2,7.993377686E-2,9.875264282E0,9.875687851E0
7.338138458E0,4.161346436E-2,6.616241455E-2,9.861492920E0,9.861802663E0
7.348135458E0,3.996688843E-2,7.574249268E-2,9.857002258E0,9.857374285E0
7.358131458E0,4.700225830E-2,7.888595581E-2,9.863887939E0,9.864315358E0
7.368127458E0,3.532653809E-2,6.945556641E-2,9.858948212E0,9.859256152E0
7.378123458E0,4.400848389E-2,7.963439941E-2,9.856702881E0,9.857122809E0
7.388120458E0,4.730163574E-2,7.544311523E-2,9.854457550E0,9.854859853E0
7.398117458E0,4.819976807E-2,7.200027466E-2,9.851763153E0,9.852144157E0
7.408113458E0,3.951782227E-2,6.256988525E-2,9.861043854E0,9.861321541E0
7.418108458E0,3.487747192E-2,7.170089722E-2,9.858199768E0,9.858522208E0
7.428104208E0,4.415817261E-2,7.200027466E-2,9.857451324E0,9.857813175E0
7.438100208E0,4.131408691E-2,7.738906860E-2,9.854756927E0,9.855147387E0
7.448097208E0,5.074447632E-2,7.858657837E-2,9.854457550E0,9.854901545E0
7.458094208E0,4.026626587E-2,7.349716187E-2,9.863738251E0,9.864094256E0
7.468090208E0,4.700225830E-2,7.514373779E-2,9.869426422E0,9.869824400E0
7.478087208E0,4.580474854E-2,6.915618896E-2,9.851912842E0,9.852262040E0
7.488084208E0,4.326004028E-2,6.601272583E-2,9.857002258E0,9.857318227E0
7.498081208E0,4.595443726E-2,7.035369873E-2,9.854906616E0,9.855264881E0
7.508078208E0,4.071533203E-2,7.304809570E-2,9.859247589E0,9.859602263E0
7.518076208E0,5.164260864E-2,6.990463257E-2,9.858499146E0,9.858882240E0
7.528072208E0,4.415817261E-2,6.182144165E-2,9.859996033E0,9.860288718E0
7.538068208E0,4.086502075E-2,7.918533325E-2,9.857301636E0,9.857704388E0
7.548065208E0,4.730163574E-2,7.544311523E-2,9.866133270E0,9.866535097E0
7.558062208E0,4.730163574E-2,7.783813477E-2,9.864037628E0,9.864458148E0
7.568058208E0,3.817062378E-2,7.020401001E-2,9.861792297E0,9.862116047E0
7.578055208E0,4.490661621E-2,6.496490479E-2,9.876012726E0,9.876328488E0
7.588052208E0,4.430786133E-2,6.706054688E-2,9.863738251E0,9.864065723E0
7.598049208E0,4.116439819E-2,6.376739502E-2,9.850116577E0,9.850408995E0
7.608046208E0,3.083587646E-2,7.244934082E-2,9.860594788E0,9.860909153E0
7.618043208E0,4.625381470E-2,7.664062500E-2,9.868079224E0,9.868485232E0
7.628039208E0,3.712280273E-2,7.050338745E-2,9.870773621E0,9.871095213E0
7.638036208E0,4.894821167E-2,7.723937988E-2,9.846673737E0,9.847098330E0
7.648033208E0,5.373825073E-2,7.469467163E-2,9.857601013E0,9.858030474E0
7.658030208E0,4.999603271E-2,7.529342651E-2,9.857900391E0,9.858314705E0
7.668026208E0,5.508544922E-2,7.274871826E-2,9.850715332E0,9.851137972E0
7.678023208E0,4.595443726E-2,6.526428223E-2,9.853858795E0,9.854182076E0
7.688019208E0,3.682342529E-2,6.436614990E-2,9.862690430E0,9.862969202E0
7.698016208E0,4.460723877E-2,7.454498291E-2,9.869276733E0,9.869659062E0
7.708013208E0,4.834945679E-2,7.304809570E-2,9.859247589E0,9.859636744E0
7.718010208E0,4.281097412E-2,7.005432129E-2,9.852212219E0,9.852554288E0
7.728007208E0,4.460723877E-2,7.544311523E-2,9.872120819E0,9.872509860E0
7.738004208E0,4.385879517E-2,6.466552734E-2,9.861941986E0,9.862251516E0
7.748000208E0,4.131408691E-2,7.155120850E-2,9.863289185E0,9.863635231E0
7.757998208E0,4.565505981E-2,6.810836792E-2,9.853409729E0,9.853750881E0
7.767995208E0,4.610412598E-2,6.571334839E-2,9.857750702E0,9.858077538E0
7.777992208E0,4.086502075E-2,7.409591675E-2,9.861941986E0,9.862304999E0
7.787989208E0,4.191284180E-2,7.364685059E-2,9.855505371E0,9.855869655E0
7.797986208E0,4.460723877E-2,7.229965210E-2,9.868228912E0,9.868594576E0
7.807982208E0,4.790039063E-2,6.331832886E-2,9.859696655E0,9.860016318E0
7.817979208E0,3.996688843E-2,7.604187012E-2,9.850415955E0,9.850790537E0
7.827975208E0,3.891906738E-2,7.469467163E-2,9.861492920E0,9.861852595E0
7.837973208E0,3.861968994E-2,7.619155884E-2,9.856702881E0,9.857073010E0
7.847969208E0,4.415817261E-2,8.277786255E-2,9.871222687E0,9.871668524E0
7.857966208E0,4.206253052E-2,7.903564453E-2,9.865085449E0,9.865491717E0
7.867963208E0,3.921844482E-2,6.691085815E-2,9.862989807E0,9.863294738E0
7.877959208E0,4.101470947E-2,7.259902954E-2,9.867779846E0,9.868132139E0
7.887955208E0,3.637435913E-2,7.155120850E-2,9.873318329E0,9.873644590E0
7.897952208E0,4.056564331E-2,6.930587769E-2,9.858050079E0,9.858377161E0
7.907949208E0,4.370910645E-2,7.349716187E-2,9.867779846E0,9.868150354E0
7.917946208E0,5.029541016E-2,6.721023560E-2,9.853858795E0,9.854216356E0
7.927942208E0,4.610412598E-2,7.349716187E-2,9.863588562E0,9.863970131E0
7.937940208E0,4.864883423E-2,6.496490479E-2,9.862989807E0,9.863323734E0
7.947938208E0,4.430786133E-2,7.110214233E-2,9.869875488E0,9.870231044E0
7.957935208E0,3.847000122E-2,6.466552734E-2,9.860894165E0,9.861181233E0
7.967932208E0,4.146377563E-2,6.361770630E-2,9.859546967E0,9.859839392E0
7.977929208E0,3.936813354E-2,7.274871826E-2,9.851613464E0,9.851960722E0
7.987926208E0,4.251159668E-2,7.484436035E-2,9.857601013E0,9.857976803E0
7.997924208E0,4.176315308E-2,7.664062500E-2,9.849667511E0,9.850054214E0
8.007920208E0,4.385879517E-2,7.439529419E-2,9.857002258E0,9.857380574E0
8.017918208E0,4.670288086E-2,7.948471069E-2,9.866732025E0,9.867162704E0
8.027915208E0,3.412902832E-2,5.777984619E-2,9.853260040E0,9.853488556E0
8.037912208E0,4.595443726E-2,6.301895142E-2,9.853559418E0,9.853868093E0
8.047909208E0,4.775070190E-2,6.481521606E-2,9.863887939E0,9.864216463E0
8.057907208E0,4.745132446E-2,6.661148071E-2,9.863738251E0,9.864077301E0
8.067904208E0,3.742218018E-2,7.050338745E-2,9.862690430E0,9.863013417E0
8.077902208E0,4.086502075E-2,7.484436035E-2,9.860744476E0,9.861113185E0
8.087899208E0,4.326004028E-2,7.080276489E-2,9.870174866E0,9.870523610E0
8.097897208E0,3.742218018E-2,6.286926270E-2,9.854457550E0,9.854729147E0
8.107894208E0,4.775070190E-2,6.571334839E-2,9.858199768E0,9.858534427E0
8.117892208E0,4.161346436E-2,7.155120850E-2,9.861492920E0,9.861840288E0
8.127889208E0,4.101470947E-2,7.050338745E-2,9.867929535E0,9.868266628E0
8.137886208E0,4.580474854E-2,6.676116943E-2,9.864337006E0,9.864669264E0
8.147883208E0,3.906875610E-2,5.942642212E-2,9.865983582E0,9.866239907E0
8.157880208E0,4.071533203E-2,6.676116943E-2,9.862241364E0,9.862551369E0
8.167877208E0,4.790039063E-2,6.870712280E-2,9.862241364E0,9.862597012E0
8.177874208E0,4.505630493E-2,6.661148071E-2,9.871072998E0,9.871400574E0
8.187871208E0,5.254074097E-2,6.870712280E-2,9.865534515E0,9.865913666E0
8.197869208E0,4.101470947E-2,6.301895142E-2,9.858199768E0,9.858486510E0
8.207866208E0,4.580474854E-2,7.738906860E-2,9.864486694E0,9.864896598E0
8.217862208E0,3.757186890E-2,7.798782349E-2,9.860445099E0,9.860825082E0
8.227859208E0,3.906875610E-2,6.496490479E-2,9.860145721E0,9.860437133E0
8.237856208E0,4.370910645E-2,7.978408813E-2,9.866282959E0,9.866702358E0
8.247852208E0,4.415817261E-2,6.631210327E-2,9.865983582E0,9.866305249E0
8.257848208E0,4.760101318E-2,7.080276489E-2,9.850116577E0,9.850486053E0
8.267844208E0,4.655319214E-2,7.319778442E-2,9.860594788E0,9.860976355E0
8.277841208E0,3.547622681E-2,7.200027466E-2,9.858499146E0,9.858825894E0
8.287839208E0,4.176315308E-2,6.556365967E-2,9.865085449E0,9.865391714E0
8.297836208E0,4.670288086E-2,7.424560547E-2,9.862989807E0,9.863379822E0
8.307832208E0,4.041595459E-2,7.903564453E-2,9.860894165E0,9.861293719E0
8.317828208E0,3.832031250E-2,6.691085815E-2,9.865983582E0,9.866284891E0
8.327825208E0,4.730163574E-2,7.080276489E-2,9.861343231E0,9.861710845E0
8.337822208E0,4.385879517E-2,7.259902954E-2,9.861792297E0,9.862157042E0
8.347819208E0,4.370910645E-2,6.825805664E-2,9.859846344E0,9.860179490E0
8.357816208E0,3.861968994E-2,7.963439941E-2,9.858798523E0,9.859195780E0
8.367813208E0,4.565505981E-2,6.990463257E-2,9.861792297E0,9.862145728E0
8.377810208E0,4.625381470E-2,7.080276489E-2,9.861043854E0,9.861406509E0
8.387806208E0,4.221221924E-2,7.304809570E-2,9.867480469E0,9.867841137E0
8.397803208E0,4.071533203E-2,6.945556641E-2,9.858648834E0,9.858977566E0
8.407800208E0,4.595443726E-2,6.661148071E-2,9.856253815E0,9.856586030E0
8.417797208E0,4.580474854E-2,7.619155884E-2,9.856852570E0,9.857253462E0
8.427793208E0,4.430786133E-2,7.409591675E-2,9.859996033E0,9.860373987E0
8.437789208E0,4.251159668E-2,6.855743408E-2,9.862690430E0,9.863020322E0
8.447785208E0,4.400848389E-2,7.080276489E-2,9.862989807E0,9.863342117E0
8.457783208E0,4.236190796E-2,6.571334839E-2,9.870923309E0,9.871232940E0
8.467780208E0,3.936813354E-2,7.454498291E-2,9.862540741E0,9.862901027E0
8.477777208E0,3.787124634E-2,6.810836792E-2,9.860594788E0,9.860902725E0
8.487775208E0,4.206253052E-2,7.364685059E-2,9.856553192E0,9.856918075E0
8.497773208E0,4.775070190E-2,6.721023560E-2,9.860445099E0,9.860789770E0
8.507770208E0,4.176315308E-2,7.858657837E-2,9.855804749E0,9.856206535E0
8.517767208E0,4.041595459E-2,7.364685059E-2,9.859846344E0,9.860204219E0
8.527763208E0,4.056564331E-2,7.080276489E-2,9.862989807E0,9.863327356E0
8.537760208E0,3.517684937E-2,7.065307617E-2,9.864337006E0,9.864652747E0
8.547758208E0,4.475692749E-2,6.795867920E-2,9.867630157E0,9.867965671E0
8.557756208E0,3.981719971E-2,7.364685059E-2,9.863738251E0,9.864093549E0
8.567753208E0,4.400848389E-2,7.379653931E-2,9.865235138E0,9.865609307E0
8.577752208E0,4.984634399E-2,7.514373779E-2,9.859097900E0,9.859510264E0
8.587750208E0,5.448669434E-2,7.364685059E-2,9.866582336E0,9.867007635E0
8.597747208E0,4.775070190E-2,6.765930176E-2,9.854457550E0,9.854805504E0
8.607745208E0,3.697311401E-2,7.454498291E-2,9.854457550E0,9.854808855E0
8.617743208E0,4.206253052E-2,6.646179199E-2,9.857451324E0,9.857765114E0
8.627741208E0,4.340972900E-2,6.496490479E-2,9.857601013E0,9.857910660E0
8.637739208E0,4.191284180E-2,6.810836792E-2,9.870474243E0,9.870798206E0
8.647736208E0,3.607498169E-2,7.125183105E-2,9.860445099E0,9.860768519E0
8.657734208E0,4.550537109E-2,7.200027466E-2,9.859996033E0,9.860363915E0
8.667732208E0,3.921844482E-2,6.631210327E-2,9.853858795E0,9.854159961E0
8.677730208E0,4.445755005E-2,7.005432129E-2,9.852062531E0,9.852411897E0
8.687728208E0,4.311035156E-2,7.394622803E-2,9.861792297E0,9.862163752E0
8.697726208E0,4.819976807E-2,7.005432129E-2,9.873018951E0,9.873385136E0
8.707724208E0,4.730163574E-2,6.481521606E-2,9.868827667E0,9.869153864E0
8.717722208E0,4.326004028E-2,6.271957397E-2,9.855954437E0,9.856248934E0
8.727720208E0,4.206253052E-2,6.870712280E-2,9.852960663E0,9.853289996E0
8.737717208E0,4.251159668E-2,6.795867920E-2,9.860594788E0,9.860920605E0
8.747714208E0,4.505630493E-2,6.765930176E-2,9.869725800E0,9.870060547E0
8.757710208E0,3.921844482E-2,7.664062500E-2,9.852810974E0,9.853187097E0
8.767706208E0,4.460723877E-2,8.053253174E-2,9.865235138E0,9.865664682E0
8.777703208E0,5.194198608E-2,6.212081909E-2,9.862091675E0,9.862424102E0
8.787699208E0,4.206253052E-2,6.092330933E-2,9.860145721E0,9.860423650E0
8.797696208E0,4.296066284E-2,6.885681152E-2,9.866732025E0,9.867065812E0
8.807694208E0,4.326004028E-2,6.526428223E-2,9.866432648E0,9.866743336E0
8.817690208E0,4.819976807E-2,6.661148071E-2,9.859546967E0,9.859889791E0
8.827687208E0,4.385879517E-2,7.619155884E-2,9.867929535E0,9.868321137E0
8.837684208E0,4.251159668E-2,6.825805664E-2,9.862091675E0,9.862419510E0
8.847680208E0,4.340972900E-2,6.900650024E-2,9.853260040E0,9.853597299E0
8.857677208E0,4.819976807E-2,7.544311523E-2,9.866582336E0,9.866988491E0
8.867673208E0,4.520599365E-2,7.544311523E-2,9.859097900E0,9.859490182E0
8.877670208E0,3.607498169E-2,7.050338745E-2,9.857601013E0,9.857919145E0
8.887666208E0,4.251159668E-2,6.586303711E-2,9.868677979E0,9.868989321E0
8.897662208E0,4.071533203E-2,6.511459351E-2,9.856553192E0,9.856852362E0
8.907659208E0,3.876937866E-2,6.706054688E-2,9.861343231E0,9.861647454E0
8.917655208E0,3.951782227E-2,7.424560547E-2,9.853559418E0,9.853918371E0
8.927651208E0,3.936813354E-2,7.768844604E-2,9.856852570E0,9.857237337E0
8.937648208E0,4.490661621E-2,6.915618896E-2,9.854158173E0,9.854503157E0
8.947644208E0,4.864883423E-2,7.065307617E-2,9.853110352E0,9.853483758E0
8.957640208E0,4.580474854E-2,7.963439941E-2,9.852810974E0,9.853239254E0
8.967637208E0,4.520599365E-2,7.110214233E-2,9.863438873E0,9.863798736E0
8.977634208E0,4.296066284E-2,6.930587769E-2,9.858499146E0,9.858836358E0
8.987630208E0,4.655319214E-2,7.559280396E-2,9.846074982E0,9.846475208E0
8.997627208E0,3.817062378E-2,7.544311523E-2,9.862840118E0,9.863202515E0
9.007625208E0,4.071533203E-2,7.604187012E-2,9.856852570E0,9.857229970E0
9.017622208E0,5.089416504E-2,7.110214233E-2,9.853409729E0,9.853797695E0
9.027618208E0,4.116439819E-2,6.002517700E-2,9.855355682E0,9.855624443E0
9.037615208E0,3.832031250E-2,6.735992432E-2,9.857601013E0,9.857905637E0
9.047612208E0,4.041595459E-2,7.185058594E-2,9.844428406E0,9.844773567E0
9.057608208E0,3.951782227E-2,6.735992432E-2,9.866582336E0,9.866891406E0
9.067605208E0,4.565505981E-2,6.990463257E-2,9.867630157E0,9.867983379E0
9.077601208E0,4.400848389E-2,6.825805664E-2,9.864187317E0,9.864521647E0
9.087598208E0,4.086502075E-2,7.080276489E-2,9.862989807E0,9.863328592E0
9.097595208E0,4.041595459E-2,7.813751221E-2,9.858499146E0,9.858891638E0
9.107592208E0,5.298980713E-2,7.664062500E-2,9.866432648E0,9.866872600E0
9.117590208E0,4.011657715E-2,6.227050781E-2,9.864037628E0,9.864315754E0
9.127586208E0,3.517684937E-2,7.529342651E-2,9.860295410E0,9.860645622E0
9.137583208E0,3.936813354E-2,7.753875732E-2,9.863139496E0,9.863522840E0
9.147579208E0,4.176315308E-2,6.316864014E-2,9.854906616E0,9.855197555E0
9.157575208E0,3.891906738E-2,7.140151978E-2,9.862241364E0,9.862576620E0
9.167571208E0,4.281097412E-2,7.125183105E-2,9.862690430E0,9.863040713E0
9.177568208E0,3.278182983E-2,6.481521606E-2,9.859247589E0,9.859515134E0
9.187564208E0,4.251159668E-2,7.185058594E-2,9.848470001E0,9.848823844E0
9.197561208E0,4.251159668E-2,6.376739502E-2,9.855505371E0,9.855803348E0
9.207557208E0,4.071533203E-2,7.185058594E-2,9.846673737E0,9.847020053E0
9.217553208E0,5.313949585E-2,7.379653931E-2,9.849218445E0,9.849638253E0
9.227549208E0,3.697311401E-2,7.828720093E-2,9.866881714E0,9.867261558E0
9.237545208E0,3.562591553E-2,7.379653931E-2,9.869127045E0,9.869467248E0
9.247540208E0,3.817062378E-2,7.185058594E-2,9.859546967E0,9.859882651E0
9.257537208E0,3.742218018E-2,7.155120850E-2,9.852511597E0,9.852842471E0
9.267533208E0,4.745132446E-2,7.858657837E-2,9.859397278E0,9.859824652E0
9.277528208E0,4.655319214E-2,6.721023560E-2,9.857451324E0,9.857790373E0
9.287525208E0,4.640350342E-2,8.232879639E-2,9.862840118E0,9.863292884E0
9.297521208E0,4.131408691E-2,5.942642212E-2,9.854607239E0,9.854873017E0
9.307519208E0,4.700225830E-2,6.107299805E-2,9.862690430E0,9.862991516E0
9.317517208E0,3.547622681E-2,6.885681152E-2,9.872420197E0,9.872724060E0
9.327514208E0,3.936813354E-2,6.975494385E-2,9.860445099E0,9.860770414E0
9.337512208E0,4.041595459E-2,6.047424316E-2,9.854607239E0,9.854875667E0
9.347509208E0,4.370910645E-2,6.661148071E-2,9.858798523E0,9.859120442E0
9.357507208E0,3.921844482E-2,6.227050781E-2,9.863438873E0,9.863713404E0
9.367505208E0,4.146377563E-2,7.080276489E-2,9.855355682E0,9.855697231E0
9.377502208E0,4.430786133E-2,7.604187012E-2,9.863887939E0,9.864280553E0
9.387500208E0,4.535568237E-2,6.975494385E-2,9.849966888E0,9.850318299E0
9.397498208E0,4.311035156E-2,6.870712280E-2,9.853858795E0,9.854192627E0
9.407495208E0,4.595443726E-2,7.185058594E-2,9.851763153E0,9.852132335E0
9.417492208E0,4.460723877E-2,7.244934082E-2,9.862690430E0,9.863057397E0
9.427490125E0,4.505630493E-2,7.080276489E-2,9.857900391E0,9.858257616E0
9.437487125E0,4.011657715E-2,7.858657837E-2,9.857900391E0,9.858295253E0
9.447485125E0,4.984634399E-2,7.604187012E-2,9.864486694E0,9.864905715E0
9.457483125E0,4.834945679E-2,6.915618896E-2,9.864337006E0,9.864697908E0
9.467481125E0,4.370910645E-2,7.424560547E-2,9.867181091E0,9.867557225E0
9.477479125E0,4.640350342E-2,7.544311523E-2,9.857900391E0,9.858298284E0
9.487478125E0,4.311035156E-2,7.439529419E-2,9.860894165E0,9.861269031E0
9.497475125E0,4.355941772E-2,6.541397095E-2,9.863289185E0,9.863602281E0
9.507472125E0,4.355941772E-2,6.960525513E-2,9.857451324E0,9.857793309E0
9.517469125E0,4.086502075E-2,7.065307617E-2,9.859097900E0,9.859435745E0
9.527466125E0,4.056564331E-2,6.646179199E-2,9.859996033E0,9.860303469E0
9.537463125E0,4.969665527E-2,7.110214233E-2,9.856253815E0,9.856635558E0
9.547462125E0,4.191284180E-2,7.110214233E-2,9.857451324E0,9.857796854E0
9.557460125E0,3.936813354E-2,6.960525513E-2,9.860894165E0,9.861218407E0
9.567458125E0,4.790039063E-2,7.334747314E-2,9.863139496E0,9.863528528E0
9.577457125E0,4.430786133E-2,6.795867920E-2,9.853709106E0,9.854043065E0
9.587455125E0,5.628295898E-2,7.319778442E-2,9.861343231E0,9.861775500E0
9.597453125E0,4.191284180E-2,7.214996338E-2,9.863438873E0,9.863791802E0
9.607450125E0,3.427871704E-2,6.691085815E-2,9.857002258E0,9.857288959E0
9.617447125E0,4.056564331E-2,6.721023560E-2,9.866582336E0,9.866894638E0
9.627444125E0,3.248245239E-2,6.945556641E-2,9.862391052E0,9.862689109E0
9.637442125E0,3.682342529E-2,6.481521606E-2,9.855655060E0,9.855936974E0
9.647440125E0,3.876937866E-2,7.244934082E-2,9.867330780E0,9.867672912E0
9.657438125E0,3.712280273E-2,6.990463257E-2,9.862989807E0,9.863307391E0
9.667434125E0,4.086502075E-2,6.706054688E-2,9.860295410E0,9.860608127E0
9.677430125E0,4.236190796E-2,6.466552734E-2,9.859247589E0,9.859550658E0
9.687426125E0,4.640350342E-2,6.810836792E-2,9.859546967E0,9.859891400E0
9.697423125E0,4.475692749E-2,7.454498291E-2,9.862391052E0,9.862774326E0
9.707420125E0,4.296066284E-2,7.664062500E-2,9.874216461E0,9.874607340E0
9.717416125E0,5.134323120E-2,6.900650024E-2,9.857301636E0,9.857676885E0
9.727413125E0,4.790039063E-2,7.424560547E-2,9.863438873E0,9.863834613E0
9.737409125E0,4.475692749E-2,7.708969116E-2,9.869276733E0,9.869679288E0
9.747405125E0,3.667373657E-2,7.379653931E-2,9.867031403E0,9.867375517E0
9.757401125E0,3.951782227E-2,6.915618896E-2,9.866133270E0,9.866454781E0
9.767396125E0,4.430786133E-2,7.499404907E-2,9.857301636E0,9.857686485E0
9.777392125E0,4.655319214E-2,7.708969116E-2,9.865684204E0,9.866095217E0
9.787388125E0,4.355941772E-2,7.200027466E-2,9.856253815E0,9.856613045E0
9.797385125E0,4.879852295E-2,7.619155884E-2,9.859546967E0,9.859962111E0
9.807382125E0,4.790039063E-2,6.765930176E-2,9.856553192E0,9.856901798E0
9.817379125E0,4.236190796E-2,7.289840698E-2,9.860594788E0,9.860955241E0
9.827376125E0,4.415817261E-2,7.978408813E-2,9.870623932E0,9.871045145E0
9.837374125E0,4.550537109E-2,7.244934082E-2,9.865684204E0,9.866055162E0
9.847372125E0,4.131408691E-2,6.750961304E-2,9.866881714E0,9.867199155E0
9.857368125E0,4.041595459E-2,6.646179199E-2,9.853409729E0,9.853716756E0
9.867365125E0,3.891906738E-2,6.825805664E-2,9.859546967E0,9.859860052E0
9.877362125E0,4.565505981E-2,6.481521606E-2,9.868827667E0,9.869146109E0
9.887360125E0,4.176315308E-2,7.259902954E-2,9.866133270E0,9.866488762E0
9.897357125E0,4.445755005E-2,7.514373779E-2,9.865684204E0,9.866070538E0
9.907354125E0,4.700225830E-2,7.125183105E-2,9.867929535E0,9.868298706E0
9.917351125E0,4.535568237E-2,6.855743408E-2,9.871971130E0,9.872313369E0
9.927347125E0,3.382965088E-2,6.691085815E-2,9.856553192E0,9.856838354E0
9.937344125E0,3.876937866E-2,6.436614990E-2,9.857002258E0,9.857288653E0
9.947340125E0,4.505630493E-2,7.334747314E-2,9.860744476E0,9.861120198E0
9.957336125E0,3.652404785E-2,6.840774536E-2,9.863139496E0,9.863444345E0
9.967333125E0,4.266128540E-2,6.855743408E-2,9.863438873E0,9.863769387E0
9.977329125E0,4.715194702E-2,7.409591675E-2,9.860744476E0,9.861135591E0
9.987326125E0,3.143463135E-2,7.574249268E-2,9.863139496E0,9.863480409E0
9.997322125E0,4.490661621E-2,7.679031372E-2,9.868977356E0,9.869378269E0
1.000731912E1,3.757186890E-2,6.885681152E-2,9.860894165E0,9.861206145E0
1.001731612E1,3.996688843E-2,6.436614990E-2,9.860594788E0,9.860885859E0
1.002731312E1,4.924758911E-2,6.391708374E-2,9.855804749E0,9.856135042E0
1.003731013E1,4.730163574E-2,7.214996338E-2,9.862989807E0,9.863367123E0
1.004730713E1,4.161346436E-2,6.556365967E-2,9.866282959E0,9.866588554E0
1.005730413E1,4.610412598E-2,7.424560547E-2,9.869426422E0,9.869813367E0
1.006730212E1,4.745132446E-2,7.753875732E-2,9.863738251E0,9.864157144E0
1.007729912E1,4.445755005E-2,7.334747314E-2,9.861492920E0,9.861865895E0
1.008729612E1,4.251159668E-2,7.080276489E-2,9.857002258E0,9.857348213E0
1.009729213E1,4.775070190E-2,7.409591675E-2,9.860145721E0,9.860539741E0
1.010728913E1,5.254074097E-2,7.529342651E-2,9.846524048E0,9.846952090E0
1.011728513E1,4.430786133E-2,7.379653931E-2,9.864486694E0,9.864862232E0
1.012728113E1,4.056564331E-2,7.379653931E-2,9.851014709E0,9.851374640E0
1.013727713E1,4.640350342E-2,7.050338745E-2,9.853409729E0,9.853771222E0
1.014727312E1,4.400848389E-2,6.646179199E-2,9.849368134E0,9.849690683E0
1.015726913E1,4.879852295E-2,7.469467163E-2,9.858499146E0,9.858902880E0
1.016726512E1,4.565505981E-2,7.364685059E-2,9.867779846E0,9.868160281E0
1.017726113E1,4.161346436E-2,6.810836792E-2,9.865534515E0,9.865857373E0
1.018725813E1,4.041595459E-2,7.484436035E-2,9.856104126E0,9.856471157E0
1.019725412E1,4.775070190E-2,6.945556641E-2,9.855505371E0,9.855865783E0
1.020725113E1,4.281097412E-2,7.469467163E-2,9.858199768E0,9.858575695E0
1.021724713E1,3.547622681E-2,7.200027466E-2,9.845775604E0,9.846102775E0
1.022724313E1,3.861968994E-2,6.691085815E-2,9.862989807E0,9.863292375E0
1.023724013E1,3.727249146E-2,6.990463257E-2,9.860744476E0,9.861062697E0
1.024723612E1,4.026626587E-2,7.319778442E-2,9.852960663E0,9.853314829E0
1.025723312E1,5.179229736E-2,7.529342651E-2,9.857900391E0,9.858323978E0
1.026722913E1,5.343887329E-2,6.915618896E-2,9.865534515E0,9.865921628E0
1.027722512E1,4.251159668E-2,6.227050781E-2,9.859696655E0,9.859984938E0
1.028722113E1,4.520599365E-2,7.544311523E-2,9.858798523E0,9.859190817E0
1.029721713E1,3.412902832E-2,6.885681152E-2,9.858499146E0,9.858798682E0
1.030721313E1,3.921844482E-2,6.721023560E-2,9.869875488E0,9.870182240E0
1.031720913E1,4.026626587E-2,7.424560547E-2,9.870923309E0,9.871284656E0
1.032720613E1,4.385879517E-2,6.855743408E-2,9.856553192E0,9.856889192E0
1.033720313E1,4.311035156E-2,7.634124756E-2,9.850415955E0,9.850806107E0
1.034720013E1,4.116439819E-2,7.349716187E-2,9.866881714E0,9.867241311E0
1.035719612E1,3.921844482E-2,6.780899048E-2,9.867181091E0,9.867492024E0
1.036719312E1,4.206253052E-2,6.855743408E-2,9.862690430E0,9.863018397E0
1.037719013E1,4.430786133E-2,7.080276489E-2,9.860145721E0,9.860499473E0
1.038718613E1,3.906875610E-2,6.900650024E-2,9.857301636E0,9.857620595E0
1.039718313E1,4.236190796E-2,7.304809570E-2,9.868677979E0,9.869039244E0
1.040717913E1,3.981719971E-2,7.289840698E-2,9.861642609E0,9.861992422E0
1.041717613E1,4.370910645E-2,6.271957397E-2,9.861941986E0,9.862238284E0
1.042717258E1,4.580474854E-2,6.960525513E-2,9.871522064E0,9.871873724E0
1.043716958E1,4.520599365E-2,7.394622803E-2,9.870773621E0,9.871154112E0
1.044716658E1,4.191284180E-2,7.649093628E-2,9.873018951E0,9.873404214E0
1.045716258E1,3.936813354E-2,6.990463257E-2,9.871222687E0,9.871548705E0
1.046715958E1,4.655319214E-2,7.334747314E-2,9.867779846E0,9.868162248E0
1.047715558E1,4.610412598E-2,6.960525513E-2,9.857151947E0,9.857505516E0
1.048715158E1,4.311035156E-2,6.167175293E-2,9.854008484E0,9.854295769E0
1.049714758E1,4.700225830E-2,7.349716187E-2,9.861343231E0,9.861729127E0
1.050714458E1,3.817062378E-2,7.125183105E-2,9.862391052E0,9.862722296E0
1.051714158E1,4.146377563E-2,6.765930176E-2,9.857601013E0,9.857920408E0
1.052713858E1,4.236190796E-2,7.244934082E-2,9.862690430E0,9.863047498E0
1.053713458E1,4.445755005E-2,6.541397095E-2,9.855954437E0,9.856271776E0
1.054713158E1,4.161346436E-2,6.661148071E-2,9.862241364E0,9.862554105E0
1.055712858E1,4.370910645E-2,7.783813477E-2,9.854607239E0,9.855011572E0
1.056712558E1,4.879852295E-2,6.825805664E-2,9.858948212E0,9.859305264E0
1.057712158E1,3.397933960E-2,6.915618896E-2,9.864636383E0,9.864937311E0
1.058711858E1,3.682342529E-2,6.795867920E-2,9.865983582E0,9.866286352E0
1.059711558E1,4.311035156E-2,6.825805664E-2,9.874216461E0,9.874546490E0
1.060711258E1,4.430786133E-2,7.035369873E-2,9.860445099E0,9.860795626E0
1.061710958E1,4.281097412E-2,7.050338745E-2,9.866881714E0,9.867226473E0
1.062710658E1,4.475692749E-2,7.080276489E-2,9.867181091E0,9.867536618E0
1.063710258E1,4.535568237E-2,7.080276489E-2,9.857301636E0,9.857660255E0
1.064709958E1,4.206253052E-2,6.765930176E-2,9.863289185E0,9.863610930E0
1.065709758E1,4.715194702E-2,7.843688965E-2,9.846224670E0,9.846649984E0
1.066709458E1,5.104385376E-2,7.738906860E-2,9.862391052E0,9.862826766E0
1.067709258E1,4.640350342E-2,7.379653931E-2,9.853858795E0,9.854244383E0
1.068708958E1,4.460723877E-2,6.825805664E-2,9.861343231E0,9.861680348E0
1.069708558E1,4.909790039E-2,5.882766724E-2,9.865384827E0,9.865682393E0
1.070708258E1,4.745132446E-2,6.631210327E-2,9.862989807E0,9.863326866E0
1.071707958E1,4.011657715E-2,7.454498291E-2,9.861492920E0,9.861856261E0
1.072707658E1,4.475692749E-2,7.499404907E-2,9.858499146E0,9.858885976E0
1.073707458E1,4.340972900E-2,7.469467163E-2,9.857002258E0,9.857380850E0
1.074707158E1,4.909790039E-2,6.780899048E-2,9.862540741E0,9.862896052E0
1.075706758E1,3.951782227E-2,7.589218140E-2,9.854307861E0,9.854679331E0
1.076706358E1,4.430786133E-2,7.993377686E-2,9.868528290E0,9.868951474E0
1.077706058E1,4.385879517E-2,6.795867920E-2,9.867181091E0,9.867512588E0
1.078705558E1,4.101470947E-2,6.676116943E-2,9.867031403E0,9.867342497E0
1.079705258E1,4.161346436E-2,6.616241455E-2,9.862091675E0,9.862401399E0
1.080704858E1,4.939727783E-2,7.379653931E-2,9.853559418E0,9.853959571E0
1.081704458E1,4.760101318E-2,7.783813477E-2,9.865384827E0,9.865806729E0
1.082704058E1,4.490661621E-2,7.349716187E-2,9.866732025E0,9.867107950E0
1.083703658E1,4.176315308E-2,6.092330933E-2,9.856553192E0,9.856829949E0
1.084703258E1,4.311035156E-2,6.481521606E-2,9.864337006E0,9.864644143E0
1.085702858E1,3.936813354E-2,6.810836792E-2,9.861193542E0,9.861507323E0
1.086702458E1,4.311035156E-2,8.173004150E-2,9.857151947E0,9.857585039E0
1.087702058E1,4.266128540E-2,8.068222046E-2,9.857750702E0,9.858173183E0
1.088701658E1,3.652404785E-2,7.873626709E-2,9.854906616E0,9.855288825E0
1.089701258E1,3.996688843E-2,6.900650024E-2,9.866432648E0,9.866754909E0
1.090700858E1,4.206253052E-2,7.259902954E-2,9.869725800E0,9.870082433E0
1.091700458E1,4.954696655E-2,7.768844604E-2,9.857750702E0,9.858181338E0
1.092699958E1,3.921844482E-2,6.795867920E-2,9.860145721E0,9.860457906E0
1.093699558E1,4.251159668E-2,7.080276489E-2,9.870923309E0,9.871268776E0
1.094699158E1,4.670288086E-2,6.885681152E-2,9.865833893E0,9.866184714E0
1.095698758E1,4.550537109E-2,6.631210327E-2,9.860894165E0,9.861222123E0
1.096698358E1,4.311035156E-2,7.409591675E-2,9.860594788E0,9.860967411E0
1.097697958E1,3.817062378E-2,7.244934082E-2,9.868977356E0,9.869317097E0
1.098697458E1,4.071533203E-2,7.813751221E-2,9.868528290E0,9.868921614E0
1.099697058E1,3.652404785E-2,7.559280396E-2,9.860744476E0,9.861101861E0
1.100696858E1,3.861968994E-2,6.227050781E-2,9.849966888E0,9.850239429E0
1.101696458E1,4.326004028E-2,6.691085815E-2,9.857151947E0,9.857473967E0
1.102696058E1,4.176315308E-2,6.721023560E-2,9.858648834E0,9.858966387E0
1.103695658E1,3.966751099E-2,6.271957397E-2,9.858798523E0,9.859077826E0
1.104695258E1,3.847000122E-2,6.870712280E-2,9.864486694E0,9.864800979E0
1.105694858E1,4.011657715E-2,7.035369873E-2,9.863738251E0,9.864070725E0
1.106694458E1,4.670288086E-2,6.975494385E-2,9.863438873E0,9.863796091E0
1.107693958E1,4.670288086E-2,7.589218140E-2,9.860594788E0,9.860997432E0
1.108693558E1,4.565505981E-2,6.436614990E-2,9.863588562E0,9.863904232E0
1.109693158E1,4.385879517E-2,7.140151978E-2,9.858798523E0,9.859154633E0
1.110692758E1,4.236190796E-2,6.376739502E-2,9.859546967E0,9.859844177E0
1.111692358E1,3.981719971E-2,7.394622803E-2,9.866732025E0,9.867089455E0
1.112691958E1,3.697311401E-2,6.930587769E-2,9.861642609E0,9.861955448E0
1.113691558E1,3.876937866E-2,6.750961304E-2,9.861642609E0,9.861949886E0
1.114691158E1,4.445755005E-2,7.484436035E-2,9.861193542E0,9.861577776E0
1.115690758E1,4.550537109E-2,6.840774536E-2,9.870623932E0,9.870965868E0
1.116690358E1,4.984634399E-2,7.753875732E-2,9.861193542E0,9.861624359E0
1.117690058E1,3.951782227E-2,6.661148071E-2,9.854008484E0,9.854312860E0
1.118689658E1,3.832031250E-2,8.068222046E-2,9.856852570E0,9.857257258E0
1.119689258E1,4.206253052E-2,7.469467163E-2,9.857451324E0,9.857824058E0
1.120688858E1,3.712280273E-2,6.586303711E-2,9.850865021E0,9.851155145E0
1.121688458E1,4.760101318E-2,6.810836792E-2,9.865983582E0,9.866333495E0
1.122688158E1,3.023712158E-2,6.915618896E-2,9.862840118E0,9.863128919E0
1.123687758E1,4.266128540E-2,6.930587769E-2,9.853559418E0,9.853895498E0
1.124687558E1,4.460723877E-2,7.933502197E-2,9.854307861E0,9.854728169E0
1.125687358E1,4.131408691E-2,7.140151978E-2,9.862391052E0,9.862736045E0
1.126687058E1,4.161346436E-2,7.244934082E-2,9.865085449E0,9.865439246E0
1.127686758E1,3.951782227E-2,6.406677246E-2,9.850565643E0,9.850853247E0
1.128686458E1,4.146377563E-2,7.813751221E-2,9.853709106E0,9.854106143E0
1.129686258E1,4.520599365E-2,7.020401001E-2,9.862840118E0,9.863193569E0
1.130685958E1,4.415817261E-2,6.631210327E-2,9.859696655E0,9.860018528E0
1.131685658E1,4.954696655E-2,7.723937988E-2,9.862391052E0,9.862817959E0
1.132685258E1,4.819976807E-2,6.975494385E-2,9.860295410E0,9.860659945E0
1.133684958E1,4.161346436E-2,7.244934082E-2,9.859846344E0,9.860200328E0
1.134684658E1,4.625381470E-2,8.143066406E-2,9.852661285E0,9.853106351E0
1.135684358E1,4.236190796E-2,7.798782349E-2,9.859546967E0,9.859946400E0
1.136684058E1,4.400848389E-2,7.364685059E-2,9.866881714E0,9.867254702E0
1.137683758E1,4.475692749E-2,6.691085815E-2,9.874665527E0,9.874993647E0
1.138683458E1,4.086502075E-2,6.631210327E-2,9.853559418E0,9.853867284E0
1.139683158E1,3.487747192E-2,6.960525513E-2,9.860145721E0,9.860453082E0
1.140682858E1,3.832031250E-2,6.676116943E-2,9.871671753E0,9.871971875E0
1.141682558E1,4.311035156E-2,6.975494385E-2,9.871372375E0,9.871712963E0
1.142682158E1,4.296066284E-2,6.735992432E-2,9.862091675E0,9.862415281E0
1.143681875E1,4.281097412E-2,7.828720093E-2,9.863139496E0,9.863543095E0
1.144681575E1,4.326004028E-2,8.277786255E-2,9.857301636E0,9.857744120E0
1.145681375E1,5.269042969E-2,6.556365967E-2,9.868977356E0,9.869335790E0
1.146681075E1,3.891906738E-2,6.975494385E-2,9.864486694E0,9.864810094E0
1.147680775E1,3.742218018E-2,7.334747314E-2,9.861492920E0,9.861836689E0
1.148680575E1,3.427871704E-2,7.589218140E-2,9.859996033E0,9.860347682E0
1.149680375E1,4.340972900E-2,7.005432129E-2,9.863588562E0,9.863932853E0
1.150680175E1,4.610412598E-2,7.484436035E-2,9.862391052E0,9.862782799E0
1.151679975E1,3.353027344E-2,7.200027466E-2,9.857601013E0,9.857920980E0
1.152679775E1,4.206253052E-2,7.200027466E-2,9.861492920E0,9.861845461E0
1.153679475E1,4.400848389E-2,7.454498291E-2,9.862391052E0,9.862770958E0
1.154679175E1,4.041595459E-2,6.481521606E-2,9.867181091E0,9.867476737E0
1.155678975E1,3.921844482E-2,8.038284302E-2,9.869725800E0,9.870131045E0
1.156678575E1,3.996688843E-2,7.274871826E-2,9.858199768E0,9.858549203E0
1.157678275E1,4.625381470E-2,6.870712280E-2,9.850266266E0,9.850614478E0
1.158677875E1,4.101470947E-2,6.451583862E-2,9.845925293E0,9.846222086E0
1.159677575E1,4.340972900E-2,6.526428223E-2,9.848320312E0,9.848632230E0
1.160677175E1,4.266128540E-2,7.679031372E-2,9.869576111E0,9.869967039E0
1.161676775E1,4.385879517E-2,7.035369873E-2,9.864636383E0,9.864984755E0
1.162676475E1,3.817062378E-2,6.900650024E-2,9.865235138E0,9.865550325E0
1.163676075E1,4.281097412E-2,7.349716187E-2,9.868677979E0,9.869044516E0
1.164675875E1,4.116439819E-2,7.424560547E-2,9.850715332E0,9.851081132E0
1.165675375E1,4.370910645E-2,7.679031372E-2,9.872569885E0,9.872965278E0
1.166675075E1,4.355941772E-2,8.038284302E-2,9.867779846E0,9.868203378E0
1.167674675E1,3.861968994E-2,6.765930176E-2,9.859846344E0,9.860154116E0
1.168674275E1,4.924758911E-2,7.334747314E-2,9.859996033E0,9.860391825E0
1.169673775E1,4.610412598E-2,7.214996338E-2,9.855205994E0,9.855577933E0
1.170673275E1,4.610412598E-2,6.526428223E-2,9.859247589E0,9.859571392E0
1.171672975E1,4.894821167E-2,7.738906860E-2,9.857750702E0,9.858175992E0
1.172672575E1,4.595443726E-2,6.601272583E-2,9.857601013E0,9.857929155E0
1.173672075E1,4.191284180E-2,6.780899048E-2,9.857601013E0,9.857923335E0
1.174671875E1,4.385879517E-2,7.289840698E-2,9.865384827E0,9.865751646E0
1.175671575E1,4.236190796E-2,7.140151978E-2,9.871971130E0,9.872320229E0
1.176671175E1,3.697311401E-2,7.244934082E-2,9.855056305E0,9.855391960E0
1.177670775E1,4.505630493E-2,6.466552734E-2,9.850715332E0,9.851030619E0
1.178670475E1,4.760101318E-2,6.541397095E-2,9.863738251E0,9.864070008E0
1.179670075E1,4.236190796E-2,6.062393188E-2,9.849368134E0,9.849645802E0
1.180669775E1,4.131408691E-2,6.541397095E-2,9.850266266E0,9.850570103E0
1.181669375E1,4.730163574E-2,7.723937988E-2,9.865983582E0,9.866399313E0
1.182668975E1,4.191284180E-2,6.706054688E-2,9.873468018E0,9.873784710E0
1.183668575E1,4.490661621E-2,6.601272583E-2,9.864486694E0,9.864809782E0
1.184668175E1,4.041595459E-2,7.020401001E-2,9.851763153E0,9.852096187E0
1.185667775E1,3.936813354E-2,7.424560547E-2,9.860145721E0,9.860503836E0
1.186667475E1,3.847000122E-2,7.903564453E-2,9.863438873E0,9.863830543E0
1.187667175E1,4.296066284E-2,7.170089722E-2,9.866432648E0,9.866786702E0
1.188666875E1,4.221221924E-2,6.316864014E-2,9.865235138E0,9.865527684E0
1.189666575E1,4.924758911E-2,6.271957397E-2,9.865085449E0,9.865407746E0
1.190666175E1,4.505630493E-2,6.137237549E-2,9.863887939E0,9.864181766E0
1.191665975E1,4.520599365E-2,6.571334839E-2,9.862989807E0,9.863312312E0
1.192665675E1,5.044509888E-2,7.035369873E-2,9.863738251E0,9.864118137E0
1.193665375E1,4.640350342E-2,7.065307617E-2,9.869127045E0,9.869489033E0
1.194665075E1,4.864883423E-2,7.918533325E-2,9.870474243E0,9.870911752E0
1.195664775E1,4.400848389E-2,7.798782349E-2,9.855056305E0,9.855463136E0
1.196664475E1,4.790039063E-2,7.200027466E-2,9.860744476E0,9.861123674E0
1.197664075E1,4.236190796E-2,7.559280396E-2,9.867330780E0,9.867711261E0
1.198663775E1,4.445755005E-2,7.454498291E-2,9.872270508E0,9.872652045E0
1.199663575E1,4.790039063E-2,6.930587769E-2,9.857301636E0,9.857661654E0
1.200663275E1,4.475692749E-2,7.170089722E-2,9.867031403E0,9.867393420E0
1.201663075E1,4.311035156E-2,6.197113037E-2,9.868378601E0,9.868667344E0
1.202662775E1,4.760101318E-2,6.735992432E-2,9.869725800E0,9.870070444E0
1.203662475E1,4.969665527E-2,7.020401001E-2,9.860894165E0,9.861269294E0
1.204662175E1,4.430786133E-2,7.664062500E-2,9.865384827E0,9.865782014E0
1.205661875E1,4.430786133E-2,6.855743408E-2,9.865684204E0,9.866021900E0
1.206661475E1,4.730163574E-2,6.825805664E-2,9.871522064E0,9.871871376E0
1.207661075E1,4.460723877E-2,7.185058594E-2,9.856104126E0,9.856466956E0
1.208660675E1,3.996688843E-2,7.110214233E-2,9.870474243E0,9.870811246E0
1.209660275E1,3.847000122E-2,7.484436035E-2,9.863289185E0,9.863648167E0
1.210659875E1,3.832031250E-2,6.631210327E-2,9.867630157E0,9.867927374E0
1.211659475E1,3.861968994E-2,6.900650024E-2,9.865684204E0,9.866001125E0
1.212659075E1,4.071533203E-2,6.810836792E-2,9.862540741E0,9.862859948E0
1.213658675E1,4.805007935E-2,7.200027466E-2,9.869576111E0,9.869955697E0
1.214658275E1,4.340972900E-2,7.005432129E-2,9.870474243E0,9.870818294E0
1.215657875E1,4.266128540E-2,7.424560547E-2,9.859696655E0,9.860068485E0
1.216657575E1,4.445755005E-2,6.436614990E-2,9.866582336E0,9.866892443E0
1.217657175E1,3.891906738E-2,6.840774536E-2,9.862241364E0,9.862555400E0
1.218656875E1,3.742218018E-2,7.020401001E-2,9.867480469E0,9.867801165E0
1.219656575E1,3.861968994E-2,5.448669434E-2,9.856852570E0,9.857078820E0
1.220656275E1,4.400848389E-2,6.331832886E-2,9.856553192E0,9.856854812E0
1.221655875E1,4.191284180E-2,6.840774536E-2,9.851314087E0,9.851640754E0
1.222655475E1,3.966751099E-2,7.065307617E-2,9.858648834E0,9.858981804E0
1.223655075E1,4.251159668E-2,6.810836792E-2,9.870174866E0,9.870501399E0
1.224654675E1,4.535568237E-2,6.421646118E-2,9.865534515E0,9.865847767E0
1.225654375E1,4.430786133E-2,5.942642212E-2,9.864786072E0,9.865064568E0
1.226653975E1,4.685256958E-2,7.289840698E-2,9.860594788E0,9.860975556E0
1.227653575E1,4.610412598E-2,7.125183105E-2,9.858648834E0,9.859014111E0
1.228653175E1,4.775070190E-2,6.975494385E-2,9.860295410E0,9.860657760E0
1.229652875E1,4.191284180E-2,6.451583862E-2,9.861492920E0,9.861793021E0
1.230652475E1,4.580474854E-2,6.406677246E-2,9.849966888E0,9.850281739E0
1.231652175E1,4.146377563E-2,7.274871826E-2,9.855205994E0,9.855561719E0
1.232651775E1,3.861968994E-2,7.020401001E-2,9.860894165E0,9.861219692E0
1.233651275E1,3.847000122E-2,7.050338745E-2,9.848320312E0,9.848647808E0
1.234650875E1,4.101470947E-2,6.960525513E-2,9.868228912E0,9.868559620E0
1.235650675E1,5.074447632E-2,7.394622803E-2,9.856253815E0,9.856661824E0
1.236650375E1,4.430786133E-2,6.795867920E-2,9.859846344E0,9.860180094E0
1.237650075E1,4.176315308E-2,7.259902954E-2,9.857002258E0,9.857358079E0
1.238649775E1,4.460723877E-2,6.481521606E-2,9.854158173E0,9.854472290E0
1.239649475E1,3.832031250E-2,6.451583862E-2,9.856702881E0,9.856988507E0
1.240649175E1,4.311035156E-2,6.765930176E-2,9.858499146E0,9.858825573E0
1.241648775E1,4.999603271E-2,6.556365967E-2,9.852960663E0,9.853305639E0
1.242648475E1,4.655319214E-2,7.244934082E-2,9.870025177E0,9.870400858E0
1.243648125E1,3.951782227E-2,6.975494385E-2,9.867181091E0,9.867506782E0
1.244647725E1,3.981719971E-2,6.107299805E-2,9.860145721E0,9.860415253E0
1.245647425E1,4.805007935E-2,7.394622803E-2,9.855205994E0,9.855600541E0
1.246647025E1,4.266128540E-2,7.708969116E-2,9.860145721E0,9.860539359E0
1.247646825E1,4.385879517E-2,7.214996338E-2,9.863139496E0,9.863500896E0
1.248646525E1,4.206253052E-2,6.541397095E-2,9.859846344E0,9.860153050E0
1.249646125E1,3.562591553E-2,6.706054688E-2,9.869276733E0,9.869568864E0
1.250645825E1,3.323089600E-2,7.155120850E-2,9.852960663E0,9.853276495E0
1.251645425E1,3.353027344E-2,7.095245361E-2,9.862690430E0,9.863002638E0
1.252645025E1,3.712280273E-2,7.394622803E-2,9.860145721E0,9.860492878E0
1.253644625E1,4.939727783E-2,7.155120850E-2,9.858648834E0,9.859032230E0
1.254644225E1,4.760101318E-2,7.334747314E-2,9.856852570E0,9.857240399E0
1.255643925E1,4.610412598E-2,6.631210327E-2,9.863438873E0,9.863769528E0
1.256643525E1,4.370910645E-2,7.035369873E-2,9.859996033E0,9.860343903E0
1.257643225E1,4.640350342E-2,7.649093628E-2,9.862989807E0,9.863395566E0
1.258642725E1,3.936813354E-2,7.379653931E-2,9.855205994E0,9.855560915E0
1.259642325E1,4.086502075E-2,6.750961304E-2,9.867929535E0,9.868245072E0
1.260641925E1,4.056564331E-2,6.256988525E-2,9.870324554E0,9.870606231E0
1.261641625E1,4.580474854E-2,6.526428223E-2,9.862989807E0,9.863312093E0
1.262641225E1,4.864883423E-2,6.256988525E-2,9.856852570E0,9.857171211E0
1.263640925E1,4.026626587E-2,7.200027466E-2,9.871821442E0,9.872166124E0
1.264640525E1,3.876937866E-2,7.589218140E-2,9.856852570E0,9.857220971E0
1.265640125E1,4.415817261E-2,6.930587769E-2,9.857750702E0,9.858093231E0
1.266639725E1,3.981719971E-2,7.095245361E-2,9.867031403E0,9.867366840E0
1.267639425E1,4.161346436E-2,7.409591675E-2,9.873617706E0,9.873983416E0
1.268639125E1,3.847000122E-2,7.454498291E-2,9.856403503E0,9.856760468E0
1.269638825E1,4.176315308E-2,7.499404907E-2,9.860295410E0,9.860669036E0
1.270638625E1,4.176315308E-2,5.688171387E-2,9.864786072E0,9.865038466E0
1.271638425E1,4.909790039E-2,7.304809570E-2,9.862840118E0,9.863232829E0
1.272638125E1,4.834945679E-2,7.484436035E-2,9.865983582E0,9.866385933E0
1.273637925E1,4.535568237E-2,7.649093628E-2,9.867929535E0,9.868330219E0
1.274637625E1,4.340972900E-2,7.753875732E-2,9.870474243E0,9.870874249E0
1.275637325E1,4.131408691E-2,6.930587769E-2,9.855804749E0,9.856135013E0
1.276637125E1,3.996688843E-2,7.200027466E-2,9.859247589E0,9.859591493E0
1.277636825E1,3.921844482E-2,6.661148071E-2,9.862989807E0,9.863292711E0
1.278636625E1,3.772155762E-2,5.807922363E-2,9.867929535E0,9.868172547E0
1.279636325E1,4.415817261E-2,7.259902954E-2,9.854607239E0,9.854973587E0
1.280636025E1,3.697311401E-2,6.975494385E-2,9.856253815E0,9.856569993E0
1.281635725E1,4.595443726E-2,7.214996338E-2,9.852810974E0,9.853182304E0
1.282635325E1,4.266128540E-2,7.304809570E-2,9.859696655E0,9.860059541E0
1.283634925E1,4.251159668E-2,7.155120850E-2,9.860594788E0,9.860946018E0
1.284634525E1,4.251159668E-2,6.915618896E-2,9.851912842E0,9.852247280E0
1.285634225E1,3.951782227E-2,6.586303711E-2,9.862540741E0,9.862839828E0
1.286633825E1,4.236190796E-2,6.436614990E-2,9.858050079E0,9.858351226E0
1.287633525E1,3.832031250E-2,6.780899048E-2,9.857151947E0,9.857459663E0
1.288633125E1,4.430786133E-2,7.454498291E-2,9.857750702E0,9.858132127E0
1.289632825E1,5.284011841E-2,7.319778442E-2,9.855505371E0,9.855918837E0
1.290632525E1,3.787124634E-2,6.301895142E-2,9.856104126E0,9.856378349E0
1.291632225E1,3.562591553E-2,7.574249268E-2,9.864187317E0,9.864542440E0
1.292631925E1,4.056564331E-2,6.795867920E-2,9.865384827E0,9.865702293E0
1.293631725E1,4.415817261E-2,6.706054688E-2,9.869426422E0,9.869753035E0
1.294631425E1,4.805007935E-2,6.421646118E-2,9.865085449E0,9.865411471E0
1.295631125E1,4.311035156E-2,7.619155884E-2,9.848020935E0,9.848410024E0
1.296630825E1,4.520599365E-2,6.227050781E-2,9.858948212E0,9.859248503E0
1.297630525E1,5.134323120E-2,7.649093628E-2,9.869127045E0,9.869557012E0
1.298630225E1,3.876937866E-2,6.511459351E-2,9.865235138E0,9.865526205E0
1.299629825E1,4.505630493E-2,6.601272583E-2,9.867031403E0,9.867355089E0
1.300629425E1,4.819976807E-2,7.050338745E-2,9.863887939E0,9.864257662E0
1.301629025E1,3.832031250E-2,7.364685059E-2,9.858050079E0,9.858399651E0
1.302628725E1,3.038681030E-2,7.873626709E-2,9.862241364E0,9.862602469E0
1.303628325E1,4.475692749E-2,7.185058594E-2,9.873617706E0,9.873980570E0
1.304627925E1,4.460723877E-2,7.140151978E-2,9.860445099E0,9.860804507E0
1.305627625E1,4.430786133E-2,7.484436035E-2,9.857451324E0,9.857835030E0
1.306627125E1,4.550537109E-2,7.229965210E-2,9.864486694E0,9.864856599E0
1.307626725E1,4.415817261E-2,7.259902954E-2,9.858349457E0,9.858715666E0
1.308626325E1,4.281097412E-2,6.840774536E-2,9.864636383E0,9.864966466E0
1.309625925E1,4.026626587E-2,7.574249268E-2,9.867480469E0,9.867853318E0
1.310625525E1,4.266128540E-2,6.870712280E-2,9.864786072E0,9.865117581E0
1.311625125E1,4.385879517E-2,6.182144165E-2,9.862540741E0,9.862832015E0
1.312624625E1,3.742218018E-2,6.511459351E-2,9.864187317E0,9.864473212E0
1.313624225E1,4.236190796E-2,7.873626709E-2,9.859696655E0,9.860102031E0
1.314623925E1,4.146377563E-2,7.155120850E-2,9.861792297E0,9.862139024E0
1.315623625E1,4.370910645E-2,7.978408813E-2,9.862540741E0,9.862960299E0
1.316623325E1,4.370910645E-2,7.334747314E-2,9.862391052E0,9.862760648E0
1.317622925E1,4.071533203E-2,6.631210327E-2,9.855954437E0,9.856261609E0
1.318622625E1,4.670288086E-2,6.376739502E-2,9.856104126E0,9.856421053E0
1.319622325E1,5.373825073E-2,5.957611084E-2,9.857301636E0,9.857628145E0
1.320621925E1,4.326004028E-2,6.750961304E-2,9.862989807E0,9.863315716E0
1.321621525E1,3.697311401E-2,7.738906860E-2,9.856403503E0,9.856776659E0
1.322621125E1,3.876937866E-2,7.185058594E-2,9.862241364E0,9.862579292E0
1.323620825E1,4.445755005E-2,6.346801758E-2,9.862391052E0,9.862695470E0
1.324620425E1,4.924758911E-2,7.544311523E-2,9.860594788E0,9.861006366E0
1.325620025E1,3.592529297E-2,6.092330933E-2,9.858499146E0,9.858752846E0
1.326619725E1,3.757186890E-2,6.840774536E-2,9.861941986E0,9.862250808E0
1.327619325E1,4.311035156E-2,6.706054688E-2,9.861792297E0,9.862114527E0
1.328618925E1,4.041595459E-2,6.152206421E-2,9.853709106E0,9.853984045E0
1.329618625E1,4.311035156E-2,6.780899048E-2,9.854457550E0,9.854785141E0
1.330618225E1,4.116439819E-2,6.721023560E-2,9.859996033E0,9.860311024E0
1.331617825E1,4.430786133E-2,7.080276489E-2,9.859247589E0,9.859601373E0
1.332617525E1,4.715194702E-2,7.484436035E-2,9.856702881E0,9.857099810E0
1.333617225E1,3.667373657E-2,5.912704468E-2,9.866282959E0,9.866528285E0
1.334616925E1,3.861968994E-2,6.676116943E-2,9.864786072E0,9.865087571E0
1.335616725E1,4.131408691E-2,7.319778442E-2,9.854158173E0,9.854516632E0
1.336616325E1,3.682342529E-2,6.137237549E-2,9.860744476E0,9.861004217E0
1.337615925E1,3.682342529E-2,6.900650024E-2,9.873917084E0,9.874226878E0
1.338615625E1,3.981719971E-2,6.780899048E-2,9.857601013E0,9.857914648E0
1.339615225E1,4.640350342E-2,6.810836792E-2,9.861193542E0,9.861537918E0
1.340614925E1,4.236190796E-2,7.289840698E-2,9.862989807E0,9.863350173E0
1.341614525E1,4.026626587E-2,6.945556641E-2,9.864935760E0,9.865262440E0
1.342614225E1,4.340972900E-2,7.424560547E-2,9.862540741E0,9.862915729E0
1.343613838E1,4.655319214E-2,7.589218140E-2,9.860894165E0,9.861296089E0
1.344613438E1,4.879852295E-2,6.795867920E-2,9.847122803E0,9.847478214E0
1.345613138E1,4.715194702E-2,6.376739502E-2,9.856104126E0,9.856423191E0
1.346612738E1,4.475692749E-2,7.559280396E-2,9.863289185E0,9.863680398E0
1.347612338E1,4.924758911E-2,7.020401001E-2,9.863738251E0,9.864111020E0
1.348612038E1,4.056564331E-2,8.068222046E-2,9.870474243E0,9.870887345E0
1.349611738E1,3.951782227E-2,7.903564453E-2,9.857750702E0,9.858146742E0
1.350611438E1,5.284011841E-2,7.888595581E-2,9.855505371E0,9.855962723E0
1.351611138E1,4.460723877E-2,7.155120850E-2,9.864636383E0,9.864996723E0
1.352610738E1,4.505630493E-2,5.987548828E-2,9.870324554E0,9.870608996E0
1.353610438E1,4.236190796E-2,6.256988525E-2,9.859696655E0,9.859986189E0
1.354610138E1,4.535568237E-2,6.945556641E-2,9.854008484E0,9.854357636E0
1.355609937E1,4.311035156E-2,7.379653931E-2,9.864037628E0,9.864407877E0
1.356609538E1,5.358856201E-2,7.679031372E-2,9.851164398E0,9.851609436E0
1.357609238E1,3.233276367E-2,6.721023560E-2,9.858798523E0,9.859080634E0
1.358608837E1,4.161346436E-2,6.691085815E-2,9.860445099E0,9.860759925E0
1.359608538E1,4.505630493E-2,6.556365967E-2,9.861343231E0,9.861664108E0
1.360608238E1,3.832031250E-2,7.110214233E-2,9.862241364E0,9.862572112E0
1.361608038E1,3.353027344E-2,7.020401001E-2,9.857750702E0,9.858057708E0
1.362607638E1,3.532653809E-2,7.948471069E-2,9.857900391E0,9.858284125E0
1.363607338E1,3.787124634E-2,7.080276489E-2,9.874665527E0,9.874991977E0
1.364607038E1,4.251159668E-2,6.795867920E-2,9.869875488E0,9.870201000E0
1.365606738E1,4.251159668E-2,7.634124756E-2,9.867630157E0,9.868017032E0
1.366606337E1,4.281097412E-2,7.244934082E-2,9.865684204E0,9.866043103E0
1.367606038E1,4.415817261E-2,6.107299805E-2,9.855804749E0,9.856092892E0
1.368605738E1,3.742218018E-2,6.646179199E-2,9.862241364E0,9.862536302E0
1.369605438E1,3.442840576E-2,6.735992432E-2,9.860894165E0,9.861184331E0
1.370605138E1,4.206253052E-2,6.975494385E-2,9.860295410E0,9.860631855E0
1.371604737E1,4.311035156E-2,7.080276489E-2,9.867929535E0,9.868277704E0
1.372604338E1,4.700225830E-2,7.065307617E-2,9.867480469E0,9.867845351E0
1.373604038E1,3.382965088E-2,7.469467163E-2,9.867929535E0,9.868270215E0
1.374603637E1,4.340972900E-2,6.975494385E-2,9.859546967E0,9.859889276E0
1.375603238E1,4.026626587E-2,6.721023560E-2,9.874515839E0,9.874826664E0
1.376602838E1,4.131408691E-2,7.244934082E-2,9.869725800E0,9.870078172E0
1.377602538E1,4.670288086E-2,7.768844604E-2,9.865534515E0,9.865950939E0
1.378602137E1,4.191284180E-2,7.589218140E-2,9.857900391E0,9.858281616E0
1.379601738E1,4.311035156E-2,7.334747314E-2,9.863438873E0,9.863805795E0
1.380601337E1,3.757186890E-2,7.364685059E-2,9.865983582E0,9.866329993E0
1.381601037E1,3.876937866E-2,6.915618896E-2,9.865833893E0,9.866152444E0
1.382600638E1,4.520599365E-2,7.454498291E-2,9.855954437E0,9.856340011E0
1.383600237E1,5.059478760E-2,7.334747314E-2,9.855954437E0,9.856357215E0
1.384599737E1,4.640350342E-2,7.170089722E-2,9.858499146E0,9.858869089E0
1.385599338E1,4.086502075E-2,6.481521606E-2,9.854158173E0,9.854456061E0
1.386598938E1,3.832031250E-2,7.304809570E-2,9.868977356E0,9.869322090E0
1.387598438E1,3.832031250E-2,7.259902954E-2,9.868228912E0,9.868570359E0
1.388598138E1,3.517684937E-2,7.828720093E-2,9.865534515E0,9.865907843E0
1.389597638E1,4.340972900E-2,7.200027466E-2,9.858948212E0,9.859306684E0
1.390597338E1,4.221221924E-2,7.214996338E-2,9.867480469E0,9.867834529E0
1.391596838E1,4.251159668E-2,7.095245361E-2,9.859546967E0,9.859893908E0
1.392596237E1,4.894821167E-2,7.110214233E-2,9.868378601E0,9.868756135E0
1.393595838E1,4.101470947E-2,6.646179199E-2,9.861193542E0,9.861502799E0
1.394595437E1,4.206253052E-2,7.065307617E-2,9.871671753E0,9.872014197E0
1.395595038E1,4.011657715E-2,6.750961304E-2,9.870773621E0,9.871085997E0
1.396594637E1,3.832031250E-2,7.259902954E-2,9.864486694E0,9.864828271E0
1.397594238E1,4.670288086E-2,6.406677246E-2,9.862241364E0,9.862560034E0
1.398593838E1,4.475692749E-2,7.200027466E-2,9.864337006E0,9.864701302E0
1.399593338E1,3.951782227E-2,7.544311523E-2,9.859696655E0,9.860064475E0
1.400592838E1,3.562591553E-2,6.616241455E-2,9.862091675E0,9.862377952E0
1.401592538E1,4.520599365E-2,7.080276489E-2,9.857002258E0,9.857360201E0
1.402592137E1,4.355941772E-2,6.945556641E-2,9.864337006E0,9.864677697E0
1.403591738E1,4.535568237E-2,6.990463257E-2,9.855655060E0,9.856007328E0
1.404591438E1,3.981719971E-2,7.035369873E-2,9.864636383E0,9.864967614E0
1.405590938E1,4.939727783E-2,6.765930176E-2,9.854008484E0,9.854364570E0
1.406590537E1,4.355941772E-2,6.960525513E-2,9.851014709E0,9.851356918E0
1.407590237E1,4.445755005E-2,7.035369873E-2,9.854158173E0,9.854509598E0
1.408589738E1,3.667373657E-2,6.601272583E-2,9.862690430E0,9.862979527E0
1.409589438E1,4.685256958E-2,6.406677246E-2,9.855954437E0,9.856274021E0
1.410589038E1,3.981719971E-2,6.676116943E-2,9.866881714E0,9.867187908E0
1.411588538E1,4.056564331E-2,6.256988525E-2,9.865684204E0,9.865966013E0
1.412588138E1,4.625381470E-2,6.885681152E-2,9.862391052E0,9.862739880E0
1.413587638E1,4.176315308E-2,7.783813477E-2,9.862241364E0,9.862636952E0
1.414587237E1,4.071533203E-2,7.439529419E-2,9.864935760E0,9.865300297E0
1.415586737E1,5.029541016E-2,6.975494385E-2,9.856253815E0,9.856628969E0
1.416586237E1,4.191284180E-2,7.454498291E-2,9.858798523E0,9.859169435E0
1.417585838E1,4.131408691E-2,7.649093628E-2,9.863139496E0,9.863522618E0
1.418585437E1,3.802093506E-2,7.589218140E-2,9.860445099E0,9.860810452E0
1.419584937E1,4.146377563E-2,7.783813477E-2,9.862690430E0,9.863084737E0
1.420584538E1,4.715194702E-2,7.005432129E-2,9.857900391E0,9.858262069E0
1.421584138E1,3.996688843E-2,6.406677246E-2,9.867630157E0,9.867919073E0
1.422583738E1,4.370910645E-2,6.930587769E-2,9.867181091E0,9.867521294E0
1.423583338E1,4.445755005E-2,6.795867920E-2,9.864187317E0,9.864521594E0
1.424582938E1,4.236190796E-2,7.469467163E-2,9.866732025E0,9.867105689E0
1.425582438E1,4.670288086E-2,6.825805664E-2,9.862091675E0,9.862438467E0
1.426582038E1,4.146377563E-2,7.514373779E-2,9.863887939E0,9.864261306E0
1.427581637E1,4.385879517E-2,7.454498291E-2,9.848020935E0,9.848400727E0
1.428581238E1,4.550537109E-2,7.843688965E-2,9.859846344E0,9.860263334E0
1.429580938E1,4.281097412E-2,7.529342651E-2,9.867181091E0,9.867561227E0
1.430580537E1,4.460723877E-2,6.795867920E-2,9.847871246E0,9.848206754E0
1.431580238E1,4.385879517E-2,7.140151978E-2,9.857151947E0,9.857508117E0
1.432579838E1,3.936813354E-2,7.274871826E-2,9.865384827E0,9.865731600E0
1.433579538E1,4.460723877E-2,7.574249268E-2,9.863588562E0,9.863980234E0
1.434579138E1,4.355941772E-2,6.870712280E-2,9.868827667E0,9.869162964E0
1.435578838E1,5.493576050E-2,7.664062500E-2,9.862690430E0,9.863141195E0
1.436578637E1,3.891906738E-2,6.840774536E-2,9.855355682E0,9.855669939E0
1.437578238E1,3.727249146E-2,7.544311523E-2,9.859097900E0,9.859456999E0
1.438577837E1,4.790039063E-2,6.391708374E-2,9.864935760E0,9.865259115E0
1.439577438E1,4.565505981E-2,6.017486572E-2,9.859247589E0,9.859536927E0
1.440577038E1,4.819976807E-2,7.155120850E-2,9.858349457E0,9.858726936E0
1.441576638E1,4.565505981E-2,6.062393188E-2,9.858798523E0,9.859090625E0
1.442576238E1,3.996688843E-2,6.601272583E-2,9.873617706E0,9.873919265E0
1.443575825E1,4.805007935E-2,6.631210327E-2,9.865534515E0,9.865874385E0
1.444575425E1,4.131408691E-2,7.289840698E-2,9.860295410E0,9.860651429E0
1.445574925E1,3.667373657E-2,6.945556641E-2,9.864636383E0,9.864949063E0
1.446574525E1,4.640350342E-2,6.346801758E-2,9.867630157E0,9.867943372E0
1.447574125E1,4.086502075E-2,6.780899048E-2,9.866282959E0,9.866600602E0
1.448573725E1,4.640350342E-2,6.661148071E-2,9.852661285E0,9.852995726E0
1.449573225E1,4.385879517E-2,7.604187012E-2,9.857151947E0,9.857542821E0
1.450572725E1,4.550537109E-2,6.810836792E-2,9.857301636E0,9.857641961E0
1.451572325E1,4.520599365E-2,7.200027466E-2,9.860145721E0,9.860512221E0
1.452571925E1,4.340972900E-2,7.349716187E-2,9.851763153E0,9.852132940E0
1.453571525E1,3.787124634E-2,6.691085815E-2,9.868378601E0,9.868678103E0
1.454571025E1,3.876937866E-2,7.095245361E-2,9.868228912E0,9.868560137E0
1.455570625E1,4.894821167E-2,7.499404907E-2,9.870773621E0,9.871179864E0
1.456570225E1,4.849914551E-2,6.795867920E-2,9.874815216E0,9.875168156E0
1.457569825E1,4.775070190E-2,7.619155884E-2,9.874216461E0,9.874625867E0
1.458569425E1,3.532653809E-2,7.394622803E-2,9.868528290E0,9.868868558E0
1.459569025E1,4.805007935E-2,6.541397095E-2,9.862091675E0,9.862425665E0
1.460568625E1,4.580474854E-2,7.125183105E-2,9.861043854E0,9.861407647E0
1.461568125E1,4.011657715E-2,6.930587769E-2,9.861043854E0,9.861368999E0
1.462567625E1,4.355941772E-2,6.346801758E-2,9.862091675E0,9.862392094E0
1.463567125E1,3.607498169E-2,7.679031372E-2,9.859846344E0,9.860211361E0
1.464566625E1,4.296066284E-2,7.514373779E-2,9.866881714E0,9.867261371E0
1.465566225E1,3.667373657E-2,7.185058594E-2,9.859846344E0,9.860176337E0
1.466565725E1,3.951782227E-2,7.110214233E-2,9.853110352E0,9.853446137E0
1.467565225E1,4.475692749E-2,7.319778442E-2,9.861792297E0,9.862165503E0
1.468564825E1,4.400848389E-2,7.080276489E-2,9.854607239E0,9.854959848E0
1.469564325E1,4.266128540E-2,7.514373779E-2,9.860744476E0,9.861123070E0
1.470563825E1,4.445755005E-2,7.334747314E-2,9.851164398E0,9.851537765E0
1.471563425E1,3.577560425E-2,7.813751221E-2,9.855655060E0,9.856029729E0
1.472563125E1,4.086502075E-2,7.095245361E-2,9.859846344E0,9.860186313E0
1.473562725E1,4.266128540E-2,6.541397095E-2,9.860445099E0,9.860754359E0
1.474562325E1,4.056564331E-2,7.589218140E-2,9.858199768E0,9.858575346E0
1.475561925E1,4.326004028E-2,7.304809570E-2,9.869276733E0,9.869641873E0
1.476561425E1,4.445755005E-2,7.214996338E-2,9.867330780E0,9.867694706E0
1.477561025E1,4.011657715E-2,6.646179199E-2,9.859546967E0,9.859852580E0
1.478560625E1,5.448669434E-2,7.484436035E-2,9.862540741E0,9.862975228E0
1.479560225E1,4.116439819E-2,7.768844604E-2,9.871821442E0,9.872212952E0
1.480559725E1,4.086502075E-2,7.214996338E-2,9.856104126E0,9.856452917E0
1.481559225E1,4.445755005E-2,6.676116943E-2,9.864636383E0,9.864962468E0
1.482558925E1,3.832031250E-2,6.616241455E-2,9.858648834E0,9.858945316E0
1.483558525E1,4.490661621E-2,6.601272583E-2,9.854906616E0,9.855230018E0
1.484558025E1,4.894821167E-2,5.733078003E-2,9.846673737E0,9.846962294E0
1.485557625E1,3.847000122E-2,5.763015747E-2,9.864486694E0,9.864730048E0
1.486557325E1,3.517684937E-2,6.735992432E-2,9.864486694E0,9.864779395E0
1.487556925E1,4.251159668E-2,6.002517700E-2,9.861343231E0,9.861617544E0
1.488556525E1,4.535568237E-2,6.601272583E-2,9.858199768E0,9.858525117E0
1.489556125E1,3.472778320E-2,7.259902954E-2,9.854906616E0,9.855235210E0
1.490555725E1,3.263214111E-2,7.694000244E-2,9.864187317E0,9.864541350E0
1.491555325E1,4.505630493E-2,6.750961304E-2,9.857002258E0,9.857336412E0
1.492554825E1,3.996688843E-2,7.259902954E-2,9.857900391E0,9.858248733E0
1.493554425E1,3.847000122E-2,6.676116943E-2,9.857900391E0,9.858201515E0
1.494554025E1,4.281097412E-2,7.499404907E-2,9.862840118E0,9.863218141E0
1.495553725E1,4.296066284E-2,6.735992432E-2,9.857002258E0,9.857326032E0
1.496553225E1,4.146377563E-2,6.601272583E-2,9.862540741E0,9.862848817E0
1.497552725E1,4.625381470E-2,7.155120850E-2,9.865235138E0,9.865603039E0
1.498552225E1,4.580474854E-2,7.634124756E-2,9.862690430E0,9.863092242E0
1.499551825E1,4.131408691E-2,8.128097534E-2,9.861492920E0,9.861914422E0
1.500551425E1,4.146377563E-2,6.526428223E-2,9.861043854E0,9.861346995E0
1.501551025E1,4.565505981E-2,6.556365967E-2,9.864935760E0,9.865259274E0
1.502550625E1,3.832031250E-2,5.867797852E-2,9.867330780E0,9.867579656E0
1.503550225E1,4.775070190E-2,6.706054688E-2,9.852361908E0,9.852705842E0
1.504549925E1,3.921844482E-2,7.065307617E-2,9.846524048E0,9.846855628E0
1.505549625E1,4.385879517E-2,7.155120850E-2,9.858948212E0,9.859305402E0
1.506549225E1,4.580474854E-2,7.125183105E-2,9.855804749E0,9.856168735E0
1.507548825E1,3.817062378E-2,6.406677246E-2,9.854607239E0,9.854889415E0
1.508548425E1,3.158432007E-2,7.035369873E-2,9.859397278E0,9.859698874E0
1.509548025E1,4.236190796E-2,6.900650024E-2,9.861193542E0,9.861525973E0
1.510547725E1,3.966751099E-2,6.526428223E-2,9.863738251E0,9.864033922E0
1.511547325E1,4.400848389E-2,6.721023560E-2,9.866432648E0,9.866759709E0
1.512546925E1,4.385879517E-2,8.502319336E-2,9.852361908E0,9.852826381E0
1.513546425E1,4.400848389E-2,7.783813477E-2,9.864337006E0,9.864742271E0
1.514546025E1,4.565505981E-2,7.289840698E-2,9.864187317E0,9.864562331E0
1.515545625E1,4.206253052E-2,7.364685059E-2,9.867630157E0,9.867994631E0
1.516545325E1,3.442840576E-2,7.125183105E-2,9.875563660E0,9.875880707E0
1.517544925E1,4.430786133E-2,6.541397095E-2,9.870174866E0,9.870491075E0
1.518544525E1,4.221221924E-2,7.110214233E-2,9.861193542E0,9.861540218E0
1.519544125E1,3.607498169E-2,7.155120850E-2,9.863887939E0,9.864213413E0
1.520543725E1,4.610412598E-2,6.436614990E-2,9.856702881E0,9.857020862E0
1.521543325E1,4.266128540E-2,7.439529419E-2,9.866881714E0,9.867254400E0
1.522542925E1,4.326004028E-2,6.571334839E-2,9.870623932E0,9.870937467E0
1.523542525E1,4.430786133E-2,7.544311523E-2,9.864786072E0,9.865174053E0
1.524542225E1,4.385879517E-2,7.229965210E-2,9.871522064E0,9.871884253E0
1.525541925E1,4.475692749E-2,6.616241455E-2,9.877060547E0,9.877383545E0
1.526541425E1,5.254074097E-2,7.050338745E-2,9.868827667E0,9.869219360E0
1.527541125E1,4.505630493E-2,7.200027466E-2,9.862391052E0,9.862756784E0
1.528540725E1,4.595443726E-2,6.436614990E-2,9.851463776E0,9.851781226E0
1.529540425E1,5.239105225E-2,6.810836792E-2,9.863588562E0,9.863962839E0
1.530540125E1,5.463638306E-2,7.679031372E-2,9.866432648E0,9.866882744E0
1.531539725E1,4.685256958E-2,6.676116943E-2,9.862391052E0,9.862728298E0
1.532539325E1,4.730163574E-2,6.197113037E-2,9.847871246E0,9.848179829E0
1.533538925E1,4.086502075E-2,6.496490479E-2,9.849218445E0,9.849517469E0
1.534538525E1,3.832031250E-2,7.873626709E-2,9.865384827E0,9.865773443E0
1.535538125E1,4.236190796E-2,7.274871826E-2,9.865235138E0,9.865594317E0
1.536537725E1,4.670288086E-2,7.903564453E-2,9.875114594E0,9.875541303E0
1.537537325E1,4.266128540E-2,6.780899048E-2,9.861792297E0,9.862117691E0
1.538537025E1,4.191284180E-2,7.095245361E-2,9.862690430E0,9.863034698E0
1.539536725E1,4.685256958E-2,7.200027466E-2,9.854457550E0,9.854831952E0
1.540536525E1,4.879852295E-2,7.664062500E-2,9.860295410E0,9.860714003E0
1.541536225E1,4.535568237E-2,6.915618896E-2,9.857301636E0,9.857648566E0
1.542535925E1,4.281097412E-2,7.559280396E-2,9.865833893E0,9.866216370E0
1.543535688E1,4.131408691E-2,6.735992432E-2,9.861193542E0,9.861510143E0
1.544535488E1,3.921844482E-2,7.110214233E-2,9.860145721E0,9.860480072E0
1.545535287E1,2.993774414E-2,7.424560547E-2,9.862391052E0,9.862715952E0
1.546534987E1,3.727249146E-2,6.900650024E-2,9.858648834E0,9.858960796E0
1.547534788E1,4.760101318E-2,7.409591675E-2,9.848769379E0,9.849163129E0
1.548534488E1,3.981719971E-2,6.885681152E-2,9.859546967E0,9.859867801E0
1.549534188E1,4.475692749E-2,6.930587769E-2,9.860594788E0,9.860939917E0
1.550533888E1,5.044509888E-2,8.023315430E-2,9.864187317E0,9.864642593E0
1.551533688E1,4.026626587E-2,7.274871826E-2,9.869725800E0,9.870076044E0
1.552533388E1,4.805007935E-2,7.020401001E-2,9.865235138E0,9.865601945E0
1.553533187E1,4.296066284E-2,7.334747314E-2,9.849368134E0,9.849734925E0
1.554532988E1,4.685256958E-2,6.301895142E-2,9.868228912E0,9.868541352E0
1.555532788E1,4.370910645E-2,6.182144165E-2,9.866432648E0,9.866723142E0
1.556532588E1,4.056564331E-2,7.140151978E-2,9.852661285E0,9.853003509E0
1.557532388E1,3.936813354E-2,7.244934082E-2,9.859397278E0,9.859742057E0
1.558532088E1,4.355941772E-2,7.424560547E-2,9.866432648E0,9.866808148E0
1.559531887E1,4.625381470E-2,6.750961304E-2,9.858948212E0,9.859287845E0
1.560531588E1,3.772155762E-2,7.095245361E-2,9.852960663E0,9.853288334E0
1.561531288E1,3.742218018E-2,7.469467163E-2,9.861343231E0,9.861697117E0
1.562530988E1,4.326004028E-2,6.735992432E-2,9.867929535E0,9.868254258E0
1.563530587E1,4.086502075E-2,6.301895142E-2,9.864337006E0,9.864622948E0
1.564530287E1,4.056564331E-2,7.140151978E-2,9.863139496E0,9.863481356E0
1.565529987E1,4.490661621E-2,6.855743408E-2,9.858349457E0,9.858690113E0
1.566529687E1,4.490661621E-2,6.691085815E-2,9.860445099E0,9.860774372E0
1.567529288E1,4.700225830E-2,6.915618896E-2,9.871522064E0,9.871876197E0
1.568528988E1,4.984634399E-2,7.080276489E-2,9.875413971E0,9.875793578E0
1.569528688E1,4.385879517E-2,7.424560547E-2,9.868677979E0,9.869054719E0
1.570528388E1,4.296066284E-2,7.200027466E-2,9.851912842E0,9.852269601E0
1.571528188E1,3.547622681E-2,6.466552734E-2,9.864337006E0,9.864612752E0
1.572527888E1,3.996688843E-2,6.750961304E-2,9.859397278E0,9.859709407E0
1.573527588E1,4.415817261E-2,7.185058594E-2,9.858948212E0,9.859308916E0
1.574527288E1,4.535568237E-2,7.140151978E-2,9.860894165E0,9.861256971E0
1.575526988E1,5.284011841E-2,7.768844604E-2,9.857151947E0,9.857599712E0
1.576526588E1,4.640350342E-2,6.271957397E-2,9.851164398E0,9.851473343E0
1.577526188E1,3.847000122E-2,7.813751221E-2,9.857601013E0,9.857985755E0
1.578525887E1,4.790039063E-2,8.232879639E-2,9.861941986E0,9.862401950E0
1.579525587E1,5.014572144E-2,7.484436035E-2,9.872270508E0,9.872681563E0
1.580525287E1,4.340972900E-2,6.571334839E-2,9.864935760E0,9.865250134E0
1.581524987E1,4.311035156E-2,7.424560547E-2,9.865384827E0,9.865758394E0
1.582524687E1,4.685256958E-2,7.783813477E-2,9.863438873E0,9.863857275E0
1.583524388E1,3.817062378E-2,7.454498291E-2,9.859546967E0,9.859902654E0
1.584523988E1,4.251159668E-2,7.394622803E-2,9.866582336E0,9.866951012E0
1.585523588E1,4.790039063E-2,7.319778442E-2,9.850865021E0,9.851253424E0
1.586523187E1,3.981719971E-2,6.721023560E-2,9.859846344E0,9.860155808E0
1.587522887E1,5.104385376E-2,7.065307617E-2,9.865085449E0,9.865470503E0
1.588522587E1,4.251159668E-2,6.780899048E-2,9.862989807E0,9.863314515E0
1.589522188E1,4.176315308E-2,6.750961304E-2,9.865833893E0,9.866153258E0
1.590521888E1,4.251159668E-2,7.050338745E-2,9.860295410E0,9.860639104E0
1.591521487E1,4.340972900E-2,6.556365967E-2,9.858349457E0,9.858663044E0
1.592521188E1,5.014572144E-2,6.975494385E-2,9.863738251E0,9.864112359E0
1.593520888E1,4.490661621E-2,6.855743408E-2,9.855355682E0,9.855696442E0
1.594520588E1,4.311035156E-2,6.691085815E-2,9.859097900E0,9.859419201E0
1.595520288E1,4.460723877E-2,6.601272583E-2,9.857750702E0,9.858072651E0
1.596520087E1,3.667373657E-2,8.217910767E-2,9.862540741E0,9.862951294E0
1.597519787E1,4.176315308E-2,7.140151978E-2,9.862391052E0,9.862737937E0
1.598519388E1,4.326004028E-2,6.765930176E-2,9.858948212E0,9.859275280E0
1.599519188E1,4.340972900E-2,6.810836792E-2,9.857900391E0,9.858231244E0
1.600518788E1,4.191284180E-2,7.244934082E-2,9.866881714E0,9.867236713E0
1.601518487E1,3.981719971E-2,6.765930176E-2,9.862391052E0,9.862703507E0
1.602518187E1,4.520599365E-2,6.721023560E-2,9.860744476E0,9.861077143E0
1.603517988E1,4.340972900E-2,6.930587769E-2,9.861043854E0,9.861382945E0
1.604517688E1,4.146377563E-2,7.873626709E-2,9.858199768E0,9.858601387E0
1.605517388E1,3.891906738E-2,7.888595581E-2,9.860744476E0,9.861136817E0
1.606517088E1,3.622467041E-2,7.529342651E-2,9.854008484E0,9.854362715E0
1.607516888E1,4.370910645E-2,7.304809570E-2,9.861043854E0,9.861411278E0
1.608516487E1,4.056564331E-2,7.244934082E-2,9.857601013E0,9.857950711E0
1.609516187E1,3.397933960E-2,6.975494385E-2,9.864786072E0,9.865091210E0
1.610515887E1,4.550537109E-2,7.304809570E-2,9.856553192E0,9.856928913E0
1.611515688E1,5.089416504E-2,7.304809570E-2,9.861792297E0,9.862194155E0
1.612515488E1,4.326004028E-2,6.900650024E-2,9.859996033E0,9.860332403E0
1.613515188E1,4.460723877E-2,7.125183105E-2,9.862391052E0,9.862749307E0
1.614514888E1,4.296066284E-2,6.900650024E-2,9.865534515E0,9.865869388E0
1.615514687E1,4.625381470E-2,7.170089722E-2,9.854607239E0,9.854976624E0
1.616514387E1,4.790039063E-2,7.020401001E-2,9.861792297E0,9.862158504E0
1.617514087E1,3.966751099E-2,6.571334839E-2,9.856253815E0,9.856552694E0
1.618513787E1,4.370910645E-2,7.155120850E-2,9.866133270E0,9.866489536E0
1.619513388E1,4.191284180E-2,6.945556641E-2,9.862840118E0,9.863173727E0
1.620513188E1,4.475692749E-2,8.038284302E-2,9.859397278E0,9.859826533E0
1.621512788E1,3.936813354E-2,7.170089722E-2,9.867181091E0,9.867520132E0
1.622512588E1,3.203338623E-2,7.768844604E-2,9.857900391E0,9.858258555E0
1.623512288E1,3.113525391E-2,7.409591675E-2,9.858050079E0,9.858377705E0
1.624512087E1,4.909790039E-2,7.274871826E-2,9.864037628E0,9.864428078E0
1.625511787E1,4.670288086E-2,7.514373779E-2,9.855505371E0,9.855902488E0
1.626511488E1,4.161346436E-2,7.544311523E-2,9.857301636E0,9.857678169E0
1.627511088E1,3.966751099E-2,6.750961304E-2,9.868079224E0,9.868389870E0
1.628510788E1,4.445755005E-2,7.110214233E-2,9.865684204E0,9.866040584E0
1.629510588E1,4.535568237E-2,6.960525513E-2,9.870324554E0,9.870674184E0
1.630510387E1,3.891906738E-2,6.840774536E-2,9.849517822E0,9.849832265E0
1.631510087E1,3.472778320E-2,7.110214233E-2,9.860445099E0,9.860762601E0
1.632509788E1,4.670288086E-2,8.158035278E-2,9.870324554E0,9.870772175E0
1.633509488E1,4.071533203E-2,7.050338745E-2,9.860894165E0,9.861230258E0
1.634509188E1,4.445755005E-2,6.795867920E-2,9.860445099E0,9.860779503E0
1.635508888E1,3.921844482E-2,7.918533325E-2,9.861941986E0,9.862337864E0
1.636508487E1,3.996688843E-2,6.137237549E-2,9.860744476E0,9.861016456E0
1.637508187E1,4.236190796E-2,7.454498291E-2,9.856852570E0,9.857225475E0
1.638507887E1,4.535568237E-2,7.933502197E-2,9.859546967E0,9.859970465E0
1.639507587E1,4.311035156E-2,7.768844604E-2,9.864187317E0,9.864587443E0
1.640507288E1,4.041595459E-2,7.439529419E-2,9.866881714E0,9.867244948E0
1.641506888E1,4.385879517E-2,6.496490479E-2,9.861792297E0,9.862103799E0
1.642506488E1,4.790039063E-2,6.661148071E-2,9.850865021E0,9.851206687E0
1.643505975E1,4.655319214E-2,6.646179199E-2,9.860295410E0,9.860629287E0
1.644505675E1,4.370910645E-2,6.661148071E-2,9.856553192E0,9.856875185E0
1.645505275E1,4.790039063E-2,7.140151978E-2,9.874366150E0,9.874740477E0
1.646504975E1,4.011657715E-2,6.271957397E-2,9.858349457E0,9.858630589E0
1.647504775E1,4.236190796E-2,6.691085815E-2,9.851912842E0,9.852231130E0
1.648504475E1,4.640350342E-2,7.229965210E-2,9.863139496E0,9.863513636E0
1.649504275E1,4.296066284E-2,7.364685059E-2,9.868827667E0,9.869195965E0
1.650504075E1,4.311035156E-2,6.691085815E-2,9.864037628E0,9.864358768E0
1.651503775E1,4.595443726E-2,6.706054688E-2,9.864187317E0,9.864522307E0
1.652503575E1,3.667373657E-2,6.930587769E-2,9.861941986E0,9.862253698E0
1.653503175E1,4.101470947E-2,6.960525513E-2,9.867779846E0,9.868110568E0
1.654502975E1,4.041595459E-2,6.900650024E-2,9.859397278E0,9.859721600E0
1.655502675E1,4.311035156E-2,7.708969116E-2,9.873468018E0,9.873863075E0
1.656502375E1,5.179229736E-2,6.780899048E-2,9.869127045E0,9.869495890E0
1.657502075E1,3.996688843E-2,7.020401001E-2,9.865684204E0,9.866014939E0
1.658501775E1,3.921844482E-2,7.125183105E-2,9.869426422E0,9.869761538E0
1.659501375E1,4.221221924E-2,6.017486572E-2,9.861492920E0,9.861766855E0
1.660501075E1,4.146377563E-2,5.972579956E-2,9.866133270E0,9.866401174E0
1.661500675E1,3.472778320E-2,6.526428223E-2,9.866881714E0,9.867158669E0
