"Time (s)","Acceleration x (m/s^2)","Acceleration y (m/s^2)","Acceleration z (m/s^2)","Absolute acceleration (m/s^2)"
0.000000000E0,1.013392639E-1,4.685855713E0,8.665629730E0,9.851936461E0
9.998000009E-3,9.909393311E-2,4.687202911E0,8.654852142E0,9.843076569E0
1.999600000E-2,1.052311707E-1,4.680766296E0,8.667276306E0,9.851006308E0
2.999400001E-2,9.984237671E-2,4.686903534E0,8.669521637E0,9.855842869E0
3.999200001E-2,1.098715210E-1,4.686604156E0,8.663234711E0,9.850277454E0
4.998900001E-2,1.029858398E-1,4.683909760E0,8.660690002E0,9.846683098E0
5.998600001E-2,1.055305481E-1,4.693190460E0,8.664731598E0,9.854681479E0
6.998300001E-2,1.059796143E-1,4.682263184E0,8.657995605E0,9.843561759E0
7.998200001E-2,1.056802368E-1,4.693639526E0,8.671766968E0,9.861083240E0
8.997900001E-2,1.038839722E-1,4.696932678E0,8.666527863E0,9.858025850E0
9.997600000E-2,1.080752563E-1,4.684358826E0,8.669371948E0,9.854588162E0
1.099750000E-1,1.041833496E-1,4.689897308E0,8.663085022E0,9.851651284E0
1.199720000E-1,1.098715210E-1,4.684059448E0,8.653355255E0,9.840378135E0
1.299700000E-1,1.017883301E-1,4.687951355E0,8.666228485E0,9.853464615E0
1.399680000E-1,1.022373962E-1,4.681365051E0,8.662785645E0,9.847308584E0
1.499660000E-1,1.020877075E-1,4.690645752E0,8.661737823E0,9.850801064E0
1.599630000E-1,1.056802368E-1,4.695435791E0,8.654702454E0,9.846936587E0
1.699610000E-1,1.098715210E-1,4.686304779E0,8.666527863E0,9.853031484E0
1.799590000E-1,1.002914429E-1,4.681664429E0,8.671916656E0,9.855464408E0
1.899580000E-1,9.789642334E-2,4.675227814E0,8.658145294E0,9.840265177E0
1.999550000E-1,1.032852173E-1,4.672234039E0,8.669671326E0,9.849042575E0
2.099540000E-1,1.079255676E-1,4.691094818E0,8.659791870E0,9.849366160E0
2.199520000E-1,1.011895752E-1,4.687651978E0,8.673413544E0,9.859636043E0
2.299520000E-1,1.070274353E-1,4.678221588E0,8.657995605E0,9.841651284E0
2.399500000E-1,1.008901978E-1,4.679269409E0,8.657247162E0,9.841426190E0
2.499480000E-1,1.047821045E-1,4.676125946E0,8.675958252E0,9.856438745E0
2.599470000E-1,1.110690308E-1,4.689448242E0,8.659791870E0,9.848616978E0
2.699460000E-1,1.008901978E-1,4.694986725E0,8.657696228E0,9.849303689E0
2.799450000E-1,1.017883301E-1,4.687502289E0,8.661438446E0,9.849038254E0
2.899440000E-1,1.019380188E-1,4.685256958E0,8.662186890E0,9.848629642E0
2.999430000E-1,9.714797974E-2,4.684209137E0,8.656498718E0,9.843079956E0
3.099410000E-1,1.017883301E-1,4.684209137E0,8.664731598E0,9.850368002E0
3.199400000E-1,1.007405090E-1,4.692591705E0,8.664432220E0,9.854082974E0
3.299400000E-1,1.032852173E-1,4.701273651E0,8.657097473E0,9.851800771E0
3.399390000E-1,1.068777466E-1,4.681814117E0,8.658744049E0,9.844016192E0
3.499380000E-1,1.029858398E-1,4.687352600E0,8.663234711E0,9.850559179E0
3.599370000E-1,9.699829102E-2,4.688400421E0,8.659791870E0,9.847969456E0
3.699360000E-1,1.062789917E-1,4.685107269E0,8.650062103E0,9.837941845E0
3.799340000E-1,1.070274353E-1,4.687053223E0,8.660390625E0,9.847958599E0
3.899320000E-1,1.037342834E-1,4.693938904E0,8.660540314E0,9.851334009E0
3.999300000E-1,1.017883301E-1,4.684957581E0,8.659642181E0,9.846247565E0
4.099290000E-1,1.073268127E-1,4.684209137E0,8.660390625E0,9.846608556E0
4.199280000E-1,9.639953613E-2,4.687801666E0,8.663085022E0,9.850574574E0
4.299270000E-1,1.011895752E-1,4.687053223E0,8.649762726E0,9.838551847E0
4.399260000E-1,9.909393311E-2,4.676425323E0,8.661887512E0,9.844138799E0
4.499250000E-1,9.969268799E-2,4.689597931E0,8.662037201E0,9.850540892E0
4.599230000E-1,1.028361511E-1,4.687502289E0,8.666378174E0,9.853393509E0
4.699220000E-1,1.053808594E-1,4.680317230E0,8.668174438E0,9.851584776E0
4.799220000E-1,1.073268127E-1,4.690346375E0,8.650361481E0,9.840712469E0
4.899210000E-1,1.062789917E-1,4.686604156E0,8.653504944E0,9.841681846E0
4.999210000E-1,1.005908203E-1,4.686454468E0,8.663534088E0,9.850370393E0
5.099200000E-1,1.032852173E-1,4.685406647E0,8.662935333E0,9.849373171E0
5.199180000E-1,1.035845947E-1,4.674329681E0,8.660989380E0,9.842399340E0
5.299160000E-1,1.073268127E-1,4.692442017E0,8.650062103E0,9.841448344E0
5.399140000E-1,9.834548950E-2,4.683011627E0,8.656349030E0,9.842390373E0
5.499130000E-1,1.056802368E-1,4.691543884E0,8.664282532E0,9.853504154E0
5.599100000E-1,1.113684082E-1,4.682113495E0,8.676257629E0,9.859616430E0
5.699080000E-1,1.010398865E-1,4.691693573E0,8.658594360E0,9.848525470E0
5.799060000E-1,9.939331055E-2,4.689298553E0,8.654852142E0,9.844077690E0
5.899040000E-1,1.053808594E-1,4.678371277E0,8.652756500E0,9.837096014E0
5.999030000E-1,1.076261902E-1,4.684059448E0,8.656349030E0,9.842986073E0
6.099010000E-1,1.019380188E-1,4.685556335E0,8.662935333E0,9.849430345E0
6.199010000E-1,1.070274353E-1,4.692591705E0,8.666228485E0,9.855728686E0
6.298990000E-1,1.005908203E-1,4.685107269E0,8.668623505E0,9.854206315E0
6.398980000E-1,1.053808594E-1,4.680017853E0,8.664731598E0,9.848413369E0
6.498960000E-1,9.430389404E-2,4.688699799E0,8.662785645E0,9.850718459E0
6.598950000E-1,1.025367737E-1,4.690046997E0,8.676407318E0,9.863422255E0
6.698930000E-1,1.077758789E-1,4.681215363E0,8.677455139E0,9.860203882E0
6.798910000E-1,1.059796143E-1,4.683311005E0,8.670120392E0,9.854725834E0
6.898890000E-1,1.100212097E-1,4.696932678E0,8.659193115E0,9.851644871E0
6.998870000E-1,1.013392639E-1,4.688699799E0,8.655001831E0,9.843943932E0
7.098860000E-1,1.046324158E-1,4.687651978E0,8.653654633E0,9.842294829E0
7.198850000E-1,1.052311707E-1,4.695136414E0,8.652606812E0,9.844947139E0
7.298830000E-1,1.026864624E-1,4.690346375E0,8.653055878E0,9.843031527E0
7.398800000E-1,1.005908203E-1,4.689448242E0,8.672216034E0,9.859430727E0
7.498780000E-1,1.067280579E-1,4.686454468E0,8.664432220E0,9.851224901E0
7.598760000E-1,1.002914429E-1,4.690046997E0,8.656498718E0,9.845890984E0
7.698740000E-1,9.969268799E-2,4.696483612E0,8.662336578E0,9.854084024E0
7.798732917E-1,9.879455566E-2,4.690945129E0,8.666078796E0,9.854727205E0
7.898702917E-1,1.032852173E-1,4.691244507E0,8.662037201E0,9.851361902E0
7.998682917E-1,1.011895752E-1,4.688849487E0,8.659642181E0,9.848093803E0
8.098662917E-1,9.939331055E-2,4.686753845E0,8.649912415E0,9.838522522E0
8.198632917E-1,9.909393311E-2,4.687053223E0,8.662037201E0,9.849323631E0
8.298622917E-1,9.969268799E-2,4.687651978E0,8.657097473E0,9.845270761E0
8.398592917E-1,1.031355286E-1,4.688550110E0,8.651409302E0,9.840732797E0
8.498572917E-1,1.068777466E-1,4.685406647E0,8.664132843E0,9.850464772E0
8.598552917E-1,1.079255676E-1,4.690945129E0,8.669222260E0,9.857587368E0
8.698522917E-1,1.029858398E-1,4.697531433E0,8.673862610E0,9.864750388E0
8.798502917E-1,1.002914429E-1,4.687502289E0,8.661588135E0,9.849154537E0
8.898472917E-1,1.014889526E-1,4.686903534E0,8.657845917E0,9.845590925E0
8.998452917E-1,1.067280579E-1,4.688400421E0,8.652157745E0,9.841357784E0
9.098432917E-1,1.062789917E-1,4.675826569E0,8.665480042E0,9.847090620E0
9.198402917E-1,1.064286804E-1,4.676575012E0,8.668024750E0,9.849686999E0
9.298392917E-1,1.001417542E-1,4.684358826E0,8.668024750E0,9.853319189E0
9.398362917E-1,1.026864624E-1,4.681814117E0,8.660540314E0,9.845551608E0
9.498332917E-1,1.059796143E-1,4.675976257E0,8.664581909E0,9.846368127E0
9.598302917E-1,9.999206543E-2,4.682263184E0,8.659492493E0,9.844815751E0
9.698282917E-1,1.083746338E-1,4.679868164E0,8.665480042E0,9.849033224E0
9.798242917E-1,1.028361511E-1,4.686903534E0,8.662186890E0,9.849422405E0
9.898222917E-1,1.097218323E-1,4.685855713E0,8.666827240E0,9.853079572E0
9.998192917E-1,1.088237000E-1,4.684059448E0,8.660540314E0,9.846685434E0
1.009817292E0,1.022373962E-1,4.685556335E0,8.668922882E0,9.854700127E0
1.019815292E0,1.001417542E-1,4.687352600E0,8.663983154E0,9.851188094E0
1.029813292E0,9.849517822E-2,4.692591705E0,8.656648407E0,9.847216858E0
1.039810292E0,9.565109253E-2,4.690645752E0,8.664132843E0,9.852842464E0
1.049807292E0,1.029858398E-1,4.675527191E0,8.665779419E0,9.847176932E0
1.059805292E0,1.103205872E-1,4.695585480E0,8.667276306E0,9.858112000E0
1.069802292E0,1.052311707E-1,4.692442017E0,8.659941559E0,9.850110328E0
1.079799292E0,1.055305481E-1,4.694088593E0,8.658893738E0,9.849976912E0
1.089796292E0,9.250762939E-2,4.689448242E0,8.662635956E0,9.850926057E0
1.099794292E0,9.939331055E-2,4.682412872E0,8.663234711E0,9.848172673E0
1.109791292E0,1.071771240E-1,4.683909760E0,8.658744049E0,9.845016307E0
1.119789292E0,1.041833496E-1,4.678371277E0,8.657396851E0,9.841165185E0
1.129787292E0,1.065783691E-1,4.678371277E0,8.671168213E0,9.853307817E0
1.139784292E0,1.005908203E-1,4.685706024E0,8.657546539E0,9.844748424E0
1.149782292E0,9.984237671E-2,4.687651978E0,8.661588135E0,9.849221217E0
1.159780292E0,9.984237671E-2,4.690196686E0,8.654852142E0,9.844510097E0
1.169778292E0,1.073268127E-1,4.689747620E0,8.656798096E0,9.846085773E0
1.179776292E0,9.984237671E-2,4.682712250E0,8.659791870E0,9.845291146E0
1.189773292E0,1.055305481E-1,4.681365051E0,8.656349030E0,9.841681460E0
1.199769292E0,9.819580078E-2,4.687651978E0,8.665180664E0,9.852364154E0
1.209767292E0,1.073268127E-1,4.693489838E0,8.666228485E0,9.856159600E0
1.219765292E0,1.091230774E-1,4.682562561E0,8.665629730E0,9.850453726E0
1.229763292E0,1.038839722E-1,4.687651978E0,8.656049652E0,9.844392745E0
1.239760292E0,1.056802368E-1,4.682712250E0,8.652606812E0,9.839032827E0
1.249757292E0,1.044827271E-1,4.688999176E0,8.662935333E0,9.851095294E0
1.259755292E0,1.011895752E-1,4.686005402E0,8.655899963E0,9.843449097E0
1.269752292E0,1.073268127E-1,4.686454468E0,8.657247162E0,9.844912541E0
1.279748292E0,9.774673462E-2,4.681365051E0,8.660989380E0,9.845682821E0
1.289745292E0,1.082249451E-1,4.684508514E0,8.657845917E0,9.844522770E0
1.299743292E0,1.034349060E-1,4.688250732E0,8.662785645E0,9.850596369E0
1.309741292E0,1.019380188E-1,4.686005402E0,8.657396851E0,9.844773142E0
1.319738292E0,1.037342834E-1,4.686005402E0,8.662935333E0,9.849662736E0
1.329735292E0,9.969268799E-2,4.686903534E0,8.661588135E0,9.848863507E0
1.339733292E0,9.969268799E-2,4.686005402E0,8.659642181E0,9.846724733E0
1.349730292E0,1.013392639E-1,4.687352600E0,8.670270081E0,9.856730052E0
1.359727292E0,1.020877075E-1,4.684658203E0,8.668324127E0,9.853744849E0
1.369725292E0,1.074765015E-1,4.679868164E0,8.655750275E0,9.840463914E0
1.379723292E0,1.029858398E-1,4.686903534E0,8.645272064E0,9.834551331E0
1.389721292E0,1.010398865E-1,4.686155090E0,8.663384399E0,9.850100905E0
1.399719292E0,1.055305481E-1,4.689747620E0,8.663983154E0,9.852384155E0
1.409718292E0,1.037342834E-1,4.691693573E0,8.667575684E0,9.856450559E0
1.419716292E0,1.050814819E-1,4.690945129E0,8.650960236E0,9.841499953E0
1.429714292E0,1.101708984E-1,4.686454468E0,8.647367706E0,9.836257487E0
1.439712292E0,1.065783691E-1,4.683161316E0,8.658893738E0,9.844785403E0
1.449711292E0,1.031355286E-1,4.686005402E0,8.670569458E0,9.856371456E0
1.459711292E0,1.077758789E-1,4.681814117E0,8.681646423E0,9.864176787E0
1.469709292E0,1.061293030E-1,4.686454468E0,8.669222260E0,9.855431675E0
1.479707292E0,1.043330383E-1,4.686454468E0,8.671467590E0,9.857387637E0
1.489706292E0,9.355545044E-2,4.684059448E0,8.655151520E0,9.841789134E0
1.499705292E0,1.014889526E-1,4.677473145E0,8.653504944E0,9.837286355E0
1.509704292E0,1.059796143E-1,4.676724701E0,8.672814789E0,9.853968843E0
1.519704292E0,1.047821045E-1,4.683460693E0,8.662785645E0,9.848331761E0
1.529702292E0,1.091230774E-1,4.689597931E0,8.667875061E0,9.855774687E0
1.539701292E0,1.011895752E-1,4.690645752E0,8.669521637E0,9.857636751E0
1.549700292E0,1.044827271E-1,4.694537659E0,8.654103699E0,9.845969292E0
1.559697292E0,9.759704590E-2,4.686753845E0,8.660690002E0,9.847981423E0
1.569696292E0,9.744735718E-2,4.685256958E0,8.653504944E0,9.840948967E0
1.579693292E0,9.295669556E-2,4.687053223E0,8.656648407E0,9.844524900E0
1.589691292E0,9.056167603E-2,4.684807892E0,8.672515411E0,9.857390626E0
1.599689292E0,1.035845947E-1,4.680915985E0,8.658744049E0,9.843553867E0
1.609689292E0,1.071771240E-1,4.677473145E0,8.661588135E0,9.844457881E0
1.619687292E0,9.340576172E-2,4.688250732E0,8.659941559E0,9.847995094E0
1.629686292E0,1.013392639E-1,4.694088593E0,8.663234711E0,9.853749186E0
1.639684292E0,1.085243225E-1,4.683909760E0,8.656798096E0,9.843319635E0
1.649682292E0,1.020877075E-1,4.682562561E0,8.659941559E0,9.845374642E0
1.659681292E0,1.050814819E-1,4.688849487E0,8.658145294E0,9.846818347E0
1.669681292E0,1.082249451E-1,4.692741394E0,8.657396851E0,9.848048266E0
1.679680292E0,9.834548950E-2,4.696333923E0,8.657995605E0,9.850183352E0
1.689679292E0,9.969268799E-2,4.678371277E0,8.665480042E0,9.848230338E0
1.699679292E0,1.109193420E-1,4.685256958E0,8.667276306E0,9.853203257E0
1.709678292E0,1.050814819E-1,4.682263184E0,8.660839691E0,9.846053768E0
1.719677292E0,9.909393311E-2,4.681215363E0,8.647966461E0,9.834171078E0
1.729676292E0,1.073268127E-1,4.693489838E0,8.660240936E0,9.850895339E0
1.739674292E0,1.106199646E-1,4.693639526E0,8.671617279E0,9.861005781E0
1.749672292E0,1.023870850E-1,4.688550110E0,8.664282532E0,9.852044308E0
1.759670292E0,1.077758789E-1,4.693190460E0,8.652606812E0,9.844046778E0
1.769668292E0,1.049317932E-1,4.689597931E0,8.655899963E0,9.845199013E0
1.779665667E0,1.013392639E-1,4.681814117E0,8.661887512E0,9.846722721E0
1.789664667E0,9.714797974E-2,4.691992950E0,8.655600586E0,9.845997008E0
1.799663667E0,1.020877075E-1,4.682263184E0,8.657845917E0,9.843388966E0
1.809661667E0,1.034349060E-1,4.683909760E0,8.655600586E0,9.842211688E0
1.819659667E0,1.058299255E-1,4.686005402E0,8.659193115E0,9.846393858E0
1.829657667E0,1.040336609E-1,4.689298553E0,8.658594360E0,9.847415916E0
1.839655667E0,1.116677856E-1,4.694687347E0,8.656199341E0,9.847961516E0
1.849654667E0,1.016386414E-1,4.688250732E0,8.654852142E0,9.843601523E0
1.859653667E0,9.804611206E-2,4.689448242E0,8.666078796E0,9.854007284E0
1.869652667E0,9.999206543E-2,4.685256958E0,8.667126617E0,9.852954632E0
1.879651667E0,1.035845947E-1,4.686155090E0,8.653654633E0,9.841570901E0
1.889649667E0,1.038839722E-1,4.685256958E0,8.652756500E0,9.840356685E0
1.899647667E0,1.017883301E-1,4.695286102E0,8.669671326E0,9.859983435E0
1.909645667E0,1.025367737E-1,4.690645752E0,8.657546539E0,9.847120566E0
1.919642667E0,1.052311707E-1,4.687651978E0,8.659342804E0,9.847302801E0
1.929639667E0,9.879455566E-2,4.690196686E0,8.658294983E0,9.847526457E0
1.939637667E0,9.834548950E-2,4.689597931E0,8.652457123E0,9.842104188E0
1.949634667E0,1.053808594E-1,4.682562561E0,8.656798096E0,9.842644489E0
1.959632667E0,1.041833496E-1,4.676575012E0,8.663384399E0,9.845579580E0
1.969629667E0,1.079255676E-1,4.680317230E0,8.665030975E0,9.848846588E0
1.979627667E0,1.037342834E-1,4.692292328E0,8.657396851E0,9.847785960E0
1.989626667E0,1.047821045E-1,4.689897308E0,8.665480042E0,9.853763768E0
1.999624667E0,1.064286804E-1,4.682861938E0,8.660390625E0,9.845957992E0
2.009622667E0,1.037342834E-1,4.692292328E0,8.656049652E0,9.846601631E0
2.019620667E0,1.049317932E-1,4.689597931E0,8.662336578E0,9.850858563E0
2.029618667E0,1.061293030E-1,4.690196686E0,8.671467590E0,9.859186506E0
2.039617667E0,1.046324158E-1,4.686005402E0,8.647816772E0,9.836377865E0
2.049615667E0,1.068777466E-1,4.688550110E0,8.668473816E0,9.855778167E0
2.059613667E0,1.050814819E-1,4.687352600E0,8.663085022E0,9.850449666E0
2.069611667E0,9.654922485E-2,4.691843262E0,8.655151520E0,9.845525013E0
2.079609667E0,9.969268799E-2,4.683011627E0,8.661588135E0,9.847012011E0
2.089607667E0,1.083746338E-1,4.689597931E0,8.662486267E0,9.851027466E0
2.099606667E0,1.014889526E-1,4.682412872E0,8.658294983E0,9.843848959E0
2.109605667E0,1.019380188E-1,4.690046997E0,8.675958252E0,9.863021027E0
2.119603667E0,1.079255676E-1,4.695884857E0,8.666976929E0,9.857964881E0
2.129601667E0,1.064286804E-1,4.689148865E0,8.668473816E0,9.856058159E0
2.139599667E0,9.595046997E-2,4.682113495E0,8.662486267E0,9.847337792E0
2.149597667E0,1.056802368E-1,4.683909760E0,8.654552765E0,9.841314064E0
2.159594667E0,1.089733887E-1,4.696184235E0,8.659492493E0,9.851539565E0
2.169593667E0,1.077758789E-1,4.683909760E0,8.657845917E0,9.844232941E0
2.179592667E0,1.025367737E-1,4.676125946E0,8.664132843E0,9.846007596E0
2.189589667E0,9.759704590E-2,4.681963806E0,8.651409302E0,9.837539996E0
2.199587667E0,1.019380188E-1,4.696184235E0,8.660540314E0,9.852385308E0
2.209585667E0,1.020877075E-1,4.686454468E0,8.660091248E0,9.847357909E0
2.219582667E0,1.011895752E-1,4.693789215E0,8.668623505E0,9.858343167E0
2.229580667E0,1.089733887E-1,4.686604156E0,8.664581909E0,9.851452349E0
2.239578667E0,1.046324158E-1,4.686903534E0,8.664881287E0,9.851811021E0
2.249577667E0,1.038839722E-1,4.683011627E0,8.659342804E0,9.845080374E0
2.259574667E0,1.022373962E-1,4.688699799E0,8.665330353E0,9.853035492E0
2.269572667E0,1.011895752E-1,4.683909760E0,8.663085022E0,9.848771094E0
2.279569667E0,9.789642334E-2,4.675227814E0,8.661588135E0,9.843294562E0
2.289567667E0,9.580078125E-2,4.690645752E0,8.653804321E0,9.843762725E0
2.299564667E0,9.924362183E-2,4.685556335E0,8.669222260E0,9.854932879E0
2.309561667E0,1.070274353E-1,4.689448242E0,8.665629730E0,9.853705816E0
2.319559667E0,1.028361511E-1,4.690945129E0,8.656798096E0,9.846608287E0
2.329556667E0,9.535171509E-2,4.684807892E0,8.665330353E0,9.851115016E0
2.339554667E0,9.984237671E-2,4.687651978E0,8.663384399E0,9.850800922E0
2.349552667E0,1.124162292E-1,4.685855713E0,8.670270081E0,9.856138414E0
2.359550667E0,1.061293030E-1,4.678820343E0,8.668024750E0,9.850750037E0
2.369547667E0,1.061293030E-1,4.681514740E0,8.669072571E0,9.852951991E0
2.379545667E0,1.005908203E-1,4.683161316E0,8.675060120E0,9.858944492E0
2.389544667E0,1.011895752E-1,4.684957581E0,8.663534088E0,9.849664449E0
2.399542667E0,1.058299255E-1,4.688550110E0,8.661887512E0,9.849974486E0
2.409541667E0,1.085243225E-1,4.683909760E0,8.668024750E0,9.853194468E0
2.419540667E0,1.022373962E-1,4.688699799E0,8.655151520E0,9.844084829E0
2.429539667E0,1.028361511E-1,4.689298553E0,8.662785645E0,9.851088839E0
2.439537667E0,1.068777466E-1,4.680317230E0,8.662935333E0,9.846991460E0
2.449535667E0,1.082249451E-1,4.692741394E0,8.656349030E0,9.847127142E0
2.459533667E0,9.969268799E-2,4.686753845E0,8.665030975E0,9.851820240E0
2.469531667E0,1.079255676E-1,4.677922211E0,8.657546539E0,9.841123727E0
2.479529667E0,1.140628052E-1,4.688550110E0,8.655600586E0,9.844538281E0
2.489526667E0,1.052311707E-1,4.684508514E0,8.659791870E0,9.846201748E0
2.499523667E0,9.939331055E-2,4.683460693E0,8.664731598E0,9.849987653E0
2.509521667E0,1.016386414E-1,4.692741394E0,8.663833466E0,9.853637020E0
2.519519667E0,1.082249451E-1,4.696932678E0,8.671018524E0,9.862020659E0
2.529517667E0,1.071771240E-1,4.690046997E0,8.665629730E0,9.853992409E0
2.539515667E0,1.058299255E-1,4.684358826E0,8.656199341E0,9.842977426E0
2.549514667E0,9.999206543E-2,4.687502289E0,8.643924866E0,9.833621571E0
2.559513667E0,1.008901978E-1,4.686304779E0,8.647667084E0,9.836349796E0
2.569511667E0,1.010398865E-1,4.686604156E0,8.660839691E0,9.848076550E0
2.579508667E0,1.017883301E-1,4.685256958E0,8.658145294E0,9.845073568E0
2.589507667E0,1.032852173E-1,4.689897308E0,8.663833466E0,9.852299981E0
2.599505667E0,1.091230774E-1,4.679419098E0,8.662336578E0,9.846062459E0
2.609502667E0,1.065783691E-1,4.678371277E0,8.664132843E0,9.847117074E0
2.619499667E0,9.595046997E-2,4.689747620E0,8.662635956E0,9.851101509E0
2.629497667E0,1.007405090E-1,4.688849487E0,8.650062103E0,9.839666283E0
2.639494667E0,1.112187195E-1,4.675078125E0,8.667875061E0,9.848897560E0
2.649493667E0,1.113684082E-1,4.692442017E0,8.668922882E0,9.858074809E0
2.659491667E0,9.864486694E-2,4.687801666E0,8.664132843E0,9.851518319E0
2.669489667E0,9.370513916E-2,4.693190460E0,8.668922882E0,9.858247374E0
2.679487667E0,1.019380188E-1,4.678670654E0,8.677305450E0,9.858802175E0
2.689485667E0,1.049317932E-1,4.683760071E0,8.666677551E0,9.851899251E0
2.699483667E0,9.415420532E-2,4.684957581E0,8.670569458E0,9.855783443E0
2.709481667E0,9.909393311E-2,4.681514740E0,8.659193115E0,9.844187385E0
2.719479667E0,1.077758789E-1,4.680017853E0,8.660540314E0,9.844751966E0
2.729478667E0,9.984237671E-2,4.688699799E0,8.660989380E0,9.849193436E0
2.739476667E0,9.490264893E-2,4.680167542E0,8.671168213E0,9.854041450E0
2.749474667E0,1.068777466E-1,4.686155090E0,8.658744049E0,9.846081499E0
2.759473667E0,9.041198730E-2,4.686903534E0,8.664731598E0,9.851538597E0
2.769471667E0,9.774673462E-2,4.681814117E0,8.652008057E0,9.837996812E0
2.779470417E0,1.059796143E-1,4.688849487E0,8.659791870E0,9.848275810E0
2.789470417E0,1.019380188E-1,4.689448242E0,8.661737823E0,9.850229353E0
2.799469417E0,1.073268127E-1,4.688999176E0,8.664282532E0,9.852310597E0
2.809468417E0,1.080752563E-1,4.683909760E0,8.671018524E0,9.855823311E0
2.819467417E0,1.065783691E-1,4.679568787E0,8.667875061E0,9.850978685E0
2.829465417E0,1.011895752E-1,4.683760071E0,8.660989380E0,9.846856593E0
2.839464417E0,1.070274353E-1,4.689747620E0,8.658444672E0,9.847530236E0
2.849463417E0,1.074765015E-1,4.688849487E0,8.665330353E0,9.853162479E0
2.859462417E0,9.939331055E-2,4.680466919E0,8.657546539E0,9.842243732E0
2.869461417E0,1.038839722E-1,4.678820343E0,8.659642181E0,9.843350771E0
2.879460417E0,1.044827271E-1,4.677024078E0,8.662935333E0,9.845400929E0
2.889459417E0,1.004411316E-1,4.680017853E0,8.659043427E0,9.843357587E0
2.899458417E0,1.019380188E-1,4.692891083E0,8.662486267E0,9.852526904E0
2.909457417E0,1.044827271E-1,4.684957581E0,8.668623505E0,9.854175645E0
2.919456417E0,1.011895752E-1,4.684209137E0,8.669072571E0,9.854180524E0
2.929455417E0,9.864486694E-2,4.677622833E0,8.658145294E0,9.841410779E0
2.939454417E0,1.062789917E-1,4.681215363E0,8.653355255E0,9.838985195E0
2.949453417E0,1.031355286E-1,4.688101044E0,8.663683777E0,9.851311837E0
2.959452417E0,1.056802368E-1,4.691992950E0,8.656798096E0,9.847137626E0
2.969452417E0,1.088237000E-1,4.687202911E0,8.667276306E0,9.854105352E0
2.979450417E0,1.046324158E-1,4.686753845E0,8.663683777E0,9.850686582E0
2.989449417E0,1.025367737E-1,4.683460693E0,8.663833466E0,9.849229827E0
2.999448417E0,1.058299255E-1,4.697082367E0,8.654552765E0,9.847591903E0
3.009446417E0,9.295669556E-2,4.686304779E0,8.664282532E0,9.850882459E0
3.019445417E0,1.008901978E-1,4.693340149E0,8.659193115E0,9.849834821E0
3.029443417E0,1.067280579E-1,4.691244507E0,8.659941559E0,9.849556016E0
3.039441417E0,1.073268127E-1,4.686903534E0,8.656798096E0,9.844731436E0
3.049440417E0,1.002914429E-1,4.692891083E0,8.655899963E0,9.846719721E0
3.059438417E0,1.034349060E-1,4.683909760E0,8.659043427E0,9.845239585E0
3.069436417E0,1.106199646E-1,4.691843262E0,8.659791870E0,9.849752545E0
3.079434417E0,1.038839722E-1,4.693489838E0,8.668024750E0,9.857702156E0
3.089433417E0,9.684860229E-2,4.689747620E0,8.663085022E0,9.851505189E0
3.099432417E0,1.028361511E-1,4.685406647E0,8.664881287E0,9.851080064E0
3.109430417E0,1.038839722E-1,4.685855713E0,8.663384399E0,9.849988066E0
3.119429417E0,1.086740112E-1,4.684807892E0,8.664581909E0,9.850594636E0
3.129428417E0,1.079255676E-1,4.689897308E0,8.662336578E0,9.851033432E0
3.139427417E0,1.010398865E-1,4.686155090E0,8.665629730E0,9.852075782E0
3.149426417E0,9.774673462E-2,4.683460693E0,8.653954010E0,9.840491781E0
3.159425417E0,9.954299927E-2,4.681664429E0,8.649762726E0,9.835968984E0
3.169423417E0,9.774673462E-2,4.693789215E0,8.665030975E0,9.855149589E0
3.179421417E0,9.565109253E-2,4.688400421E0,8.658594360E0,9.846903266E0
3.189420417E0,1.076261902E-1,4.691244507E0,8.657396851E0,9.847328503E0
3.199419417E0,1.035845947E-1,4.686304779E0,8.654852142E0,9.842695152E0
3.209417417E0,9.684860229E-2,4.680616608E0,8.657396851E0,9.842157879E0
3.219415417E0,1.029858398E-1,4.679419098E0,8.670120392E0,9.852845111E0
3.229414417E0,1.097218323E-1,4.680317230E0,8.659642181E0,9.844125709E0
3.239412417E0,1.035845947E-1,4.686903534E0,8.666527863E0,9.853248180E0
3.249410417E0,9.984237671E-2,4.691394196E0,8.665480042E0,9.854425014E0
3.259409417E0,1.050814819E-1,4.687801666E0,8.665330353E0,9.852638058E0
3.269407417E0,1.034349060E-1,4.687352600E0,8.648714905E0,9.837796638E0
3.279406417E0,1.008901978E-1,4.686753845E0,8.658893738E0,9.846434949E0
3.289404417E0,1.118174744E-1,4.684209137E0,8.661139069E0,9.847316810E0
3.299403417E0,1.067280579E-1,4.686304779E0,8.668922882E0,9.855103617E0
3.309401417E0,1.050814819E-1,4.689597931E0,8.666976929E0,9.854940890E0
3.319400417E0,9.580078125E-2,4.684658203E0,8.660989380E0,9.847229931E0
3.329399417E0,1.017883301E-1,4.693340149E0,8.672964478E0,9.861952923E0
3.339397417E0,1.014889526E-1,4.682712250E0,8.662785645E0,9.847941366E0
3.349395417E0,1.029858398E-1,4.688550110E0,8.654852142E0,9.843758115E0
3.359393417E0,1.038839722E-1,4.692292328E0,8.662935333E0,9.852656888E0
3.369391417E0,1.011895752E-1,4.690196686E0,8.663833466E0,9.852420748E0
3.379389417E0,1.110690308E-1,4.688849487E0,8.658893738E0,9.847542161E0
3.389387417E0,1.044827271E-1,4.687801666E0,8.656798096E0,9.845128459E0
3.399384417E0,1.173559570E-1,4.681814117E0,8.654103699E0,9.840054201E0
3.409382417E0,1.085243225E-1,4.692292328E0,8.659492493E0,9.849679947E0
3.419380417E0,1.104702759E-1,4.687801666E0,8.655899963E0,9.844404112E0
3.429377417E0,1.035845947E-1,4.684508514E0,8.670120392E0,9.855269524E0
3.439375417E0,1.049317932E-1,4.682712250E0,8.670120392E0,9.854430085E0
3.449372417E0,1.008901978E-1,4.686454468E0,8.656947784E0,9.844581213E0
3.459371417E0,1.023870850E-1,4.686155090E0,8.660989380E0,9.848008412E0
3.469370417E0,9.789642334E-2,4.693040771E0,8.660690002E0,9.850977957E0
3.479368417E0,1.016386414E-1,4.688400421E0,8.662336578E0,9.850254003E0
3.489367417E0,9.759704590E-2,4.686454468E0,8.670270081E0,9.856265212E0
3.499365417E0,1.064286804E-1,4.689747620E0,8.664581909E0,9.852920352E0
3.509363417E0,9.654922485E-2,4.683460693E0,8.672665100E0,9.856938965E0
3.519361417E0,1.082249451E-1,4.691094818E0,8.657995605E0,9.847790165E0
3.529359417E0,1.014889526E-1,4.690046997E0,8.657396851E0,9.846692900E0
3.539357417E0,1.052311707E-1,4.680616608E0,8.666378174E0,9.850144978E0
3.549356417E0,1.014889526E-1,4.682113495E0,8.649014282E0,9.835544461E0
3.559355417E0,1.014889526E-1,4.682712250E0,8.657696228E0,9.843464735E0
3.569354417E0,1.022373962E-1,4.685256958E0,8.670868835E0,9.856269660E0
3.579353417E0,1.049317932E-1,4.675078125E0,8.657247162E0,9.839476337E0
3.589353417E0,9.714797974E-2,4.686155090E0,8.655001831E0,9.842689874E0
3.599352417E0,1.061293030E-1,4.682712250E0,8.656798096E0,9.842723745E0
3.609350417E0,1.032852173E-1,4.687502289E0,8.662935333E0,9.850370254E0
3.619349417E0,1.007405090E-1,4.690795441E0,8.669072571E0,9.857308444E0
3.629348417E0,1.007405090E-1,4.683311005E0,8.666827240E0,9.851773699E0
3.639347417E0,1.022373962E-1,4.686903534E0,8.666976929E0,9.853629093E0
3.649345417E0,9.939331055E-2,4.683610382E0,8.669521637E0,9.854272711E0
3.659343417E0,9.999206543E-2,4.686454468E0,8.657247162E0,9.844835312E0
3.669341417E0,9.834548950E-2,4.686454468E0,8.660989380E0,9.848109684E0
3.679338417E0,1.103205872E-1,4.685556335E0,8.652307434E0,9.840174426E0
3.689336417E0,1.046324158E-1,4.693340149E0,8.660091248E0,9.850663435E0
3.699335417E0,1.107696533E-1,4.680017853E0,8.670868835E0,9.853872507E0
3.709333417E0,1.041833496E-1,4.692442017E0,8.666078796E0,9.855495318E0
3.719331417E0,1.076261902E-1,4.690196686E0,8.664581909E0,9.853147112E0
3.729330417E0,1.031355286E-1,4.678221588E0,8.653205566E0,9.837396034E0
3.739328417E0,9.924362183E-2,4.683760071E0,8.667725372E0,9.852762091E0
3.749325417E0,1.097218323E-1,4.685855713E0,8.661438446E0,9.848339890E0
3.759323417E0,9.969268799E-2,4.689448242E0,8.655151520E0,9.844415233E0
3.769321417E0,1.050814819E-1,4.685406647E0,8.665779419E0,9.851893752E0
3.779318417E0,1.052311707E-1,4.683610382E0,8.655450897E0,9.841956617E0
3.789315417E0,1.116677856E-1,4.682412872E0,8.659492493E0,9.845012455E0
3.799313417E0,1.038839722E-1,4.682861938E0,8.664881287E0,9.849880990E0
3.809311417E0,9.624984741E-2,4.689298553E0,8.663384399E0,9.851548823E0
3.819308417E0,9.954299927E-2,4.692442017E0,8.657995605E0,9.848340408E0
3.829305417E0,1.044827271E-1,4.686454468E0,8.653205566E0,9.841328096E0
3.839302417E0,1.011895752E-1,4.683011627E0,8.652906189E0,9.839391381E0
3.849299417E0,9.939331055E-2,4.685107269E0,8.658744049E0,9.845504439E0
3.859296417E0,9.400451660E-2,4.688101044E0,8.665629730E0,9.852931892E0
3.869294417E0,1.008901978E-1,4.684957581E0,8.659342804E0,9.845975023E0
3.879291417E0,1.089733887E-1,4.687502289E0,8.664581909E0,9.851879646E0
3.889289417E0,9.879455566E-2,4.682562561E0,8.658294983E0,9.843892752E0
3.899286417E0,1.061293030E-1,4.688699799E0,8.646768951E0,9.836756708E0
3.909283417E0,1.029858398E-1,4.676724701E0,8.666677551E0,9.848535921E0
3.919280417E0,9.984237671E-2,4.687951355E0,8.671916656E0,9.858447895E0
3.929277417E0,1.116677856E-1,4.683909760E0,8.662785645E0,9.848620992E0
3.939275417E0,9.864486694E-2,4.680317230E0,8.656349030E0,9.841111660E0
3.949273417E0,9.535171509E-2,4.692891083E0,8.672066345E0,9.860885019E0
3.959270417E0,1.044827271E-1,4.693639526E0,8.661139069E0,9.851725667E0
3.969267417E0,1.034349060E-1,4.690795441E0,8.665030975E0,9.853782139E0
3.979263417E0,1.007405090E-1,4.695735168E0,8.673563232E0,9.863608699E0
3.989261417E0,1.040336609E-1,4.684658203E0,8.672665100E0,9.857584157E0
3.999258417E0,9.804611206E-2,4.692891083E0,8.678652649E0,9.866704189E0
4.009257417E0,1.037342834E-1,4.696483612E0,8.674461365E0,9.864785811E0
4.019255417E0,1.032852173E-1,4.679568787E0,8.665779419E0,9.849099695E0
4.029254417E0,1.007405090E-1,4.686454468E0,8.663683777E0,9.850503577E0
4.039252417E0,1.017883301E-1,4.695735168E0,8.667725372E0,9.858486332E0
4.049251417E0,9.550140381E-2,4.687202911E0,8.662635956E0,9.849885956E0
4.059249417E0,9.999206543E-2,4.691394196E0,8.665929108E0,9.854821420E0
4.069248417E0,9.924362183E-2,4.688849487E0,8.669521637E0,9.856762360E0
4.079247417E0,9.759704590E-2,4.693789215E0,8.664581909E0,9.854753271E0
4.089245417E0,1.032852173E-1,4.688999176E0,8.664132843E0,9.852135760E0
4.099243417E0,9.774673462E-2,4.693040771E0,8.667725372E0,9.857162332E0
4.109240417E0,9.939331055E-2,4.691394196E0,8.667875061E0,9.856526599E0
4.119238417E0,1.109193420E-1,4.680317230E0,8.669671326E0,9.852962670E0
4.129235417E0,1.059796143E-1,4.688550110E0,8.660091248E0,9.848396531E0
4.139233417E0,1.023870850E-1,4.695735168E0,8.663833466E0,9.855070888E0
4.149230417E0,1.005908203E-1,4.696782990E0,8.663234711E0,9.855025348E0
4.159228417E0,1.056802368E-1,4.684508514E0,8.661737823E0,9.847918077E0
4.169227417E0,1.025367737E-1,4.677024078E0,8.661737823E0,9.844326800E0
4.179225417E0,1.020877075E-1,4.688999176E0,8.661737823E0,9.850017122E0
4.189223417E0,1.079255676E-1,4.688849487E0,8.659941559E0,9.848428567E0
4.199220417E0,1.017883301E-1,4.688999176E0,8.655600586E0,9.844617597E0
4.209219417E0,1.025367737E-1,4.699028320E0,8.663983154E0,9.856773562E0
4.219217417E0,1.028361511E-1,4.689747620E0,8.669371948E0,9.857094805E0
4.229214417E0,1.007405090E-1,4.681664429E0,8.668324127E0,9.852308037E0
4.239212417E0,1.047821045E-1,4.686903534E0,8.650361481E0,9.839044556E0
4.249209417E0,1.043330383E-1,4.690346375E0,8.662785645E0,9.851603403E0
4.259207417E0,1.037342834E-1,4.680766296E0,8.660240936E0,9.844801014E0
4.269204417E0,9.909393311E-2,4.687352600E0,8.659193115E0,9.846964985E0
4.279203417E0,9.699829102E-2,4.688400421E0,8.667126617E0,9.854419870E0
4.289200417E0,9.639953613E-2,4.691992950E0,8.666677551E0,9.855728816E0
4.299197417E0,1.056802368E-1,4.684807892E0,8.653205566E0,9.840556888E0
4.309194417E0,1.035845947E-1,4.688849487E0,8.670868835E0,9.857991968E0
4.319191417E0,1.026864624E-1,4.675826569E0,8.658294983E0,9.840730187E0
4.329189417E0,1.088237000E-1,4.681963806E0,8.655301208E0,9.841080565E0
4.339186417E0,1.026864624E-1,4.681814117E0,8.662486267E0,9.847263390E0
4.349184417E0,1.047821045E-1,4.686604156E0,8.661737823E0,9.848905519E0
4.359182417E0,1.110690308E-1,4.685256958E0,8.662336578E0,9.848860040E0
4.369180417E0,1.031355286E-1,4.685556335E0,8.674161987E0,9.859318500E0
4.379178417E0,9.744735718E-2,4.684658203E0,8.663234711E0,9.849220991E0
4.389175417E0,9.849517822E-2,4.681814117E0,8.657247162E0,9.842612110E0
4.399173417E0,1.091230774E-1,4.677323456E0,8.653205566E0,9.837033553E0
4.409171417E0,1.073268127E-1,4.679718475E0,8.653654633E0,9.838547787E0
4.419170417E0,9.639953613E-2,4.687053223E0,8.653205566E0,9.841530743E0
4.429168417E0,1.113684082E-1,4.689897308E0,8.658744049E0,9.847912885E0
4.439166417E0,1.035845947E-1,4.682113495E0,8.670569458E0,9.854526436E0
4.449164417E0,9.759704590E-2,4.682861938E0,8.664282532E0,9.849289970E0
4.459162417E0,1.023870850E-1,4.684209137E0,8.661139069E0,9.847214242E0
4.469161417E0,1.121168518E-1,4.683760071E0,8.659043427E0,9.845263412E0
4.479159417E0,1.052311707E-1,4.689897308E0,8.661288757E0,9.850082908E0
4.489157417E0,1.016386414E-1,4.691094818E0,8.659492493E0,9.849036056E0
4.499155417E0,1.029858398E-1,4.687502289E0,8.660690002E0,9.848392514E0
4.509153417E0,1.056802368E-1,4.692741394E0,8.664432220E0,9.854205996E0
4.519150417E0,1.038839722E-1,4.688101044E0,8.659342804E0,9.847502276E0
4.529148417E0,1.053808594E-1,4.692591705E0,8.661887512E0,9.851894098E0
4.539146417E0,1.028361511E-1,4.693639526E0,8.653804321E0,9.845260612E0
4.549144417E0,1.034349060E-1,4.683909760E0,8.674910431E0,9.859197756E0
4.559142417E0,1.035845947E-1,4.684209137E0,8.665030975E0,9.850650070E0
4.569140417E0,1.047821045E-1,4.693040771E0,8.665480042E0,9.855260287E0
4.579138417E0,1.025367737E-1,4.685855713E0,8.656798096E0,9.844181572E0
4.589137417E0,1.002914429E-1,4.690196686E0,8.666827240E0,9.855044279E0
4.599136417E0,9.954299927E-2,4.689298553E0,8.653804321E0,9.843157977E0
4.609134417E0,1.013392639E-1,4.692891083E0,8.665330353E0,9.855021384E0
4.619132417E0,1.028361511E-1,4.685107269E0,8.661288757E0,9.847777837E0
4.629130417E0,1.014889526E-1,4.674778748E0,8.654702454E0,9.837059058E0
4.639128417E0,1.047821045E-1,4.696184235E0,8.654852142E0,9.847415461E0
4.649127417E0,1.025367737E-1,4.693938904E0,8.670419769E0,9.860007870E0
4.659126417E0,1.032852173E-1,4.687202911E0,8.670120392E0,9.856547396E0
4.669125417E0,1.104702759E-1,4.686304779E0,8.665629730E0,9.852248210E0
4.679124417E0,1.157093811E-1,4.679868164E0,8.660839691E0,9.845034223E0
4.689123417E0,1.097218323E-1,4.692591705E0,8.670419769E0,9.859443938E0
4.699122417E0,1.017883301E-1,4.693489838E0,8.664581909E0,9.854653083E0
4.709120417E0,1.095721436E-1,4.686753845E0,8.657247162E0,9.845079791E0
4.719119417E0,1.131646729E-1,4.686155090E0,8.668773193E0,9.854972575E0
4.729118417E0,9.699829102E-2,4.689747620E0,8.669821014E0,9.857430589E0
4.739116417E0,1.043330383E-1,4.685256958E0,8.669371948E0,9.854974791E0
4.749115417E0,1.014889526E-1,4.693190460E0,8.666228485E0,9.855955198E0
4.759114417E0,9.789642334E-2,4.679868164E0,8.661438446E0,9.845367728E0
4.769112417E0,1.046324158E-1,4.684957581E0,8.665779419E0,9.851675411E0
4.779109417E0,1.086740112E-1,4.688699799E0,8.664432220E0,9.852314527E0
4.789107875E0,1.023870850E-1,4.691843262E0,8.667425995E0,9.856376093E0
4.799105875E0,1.061293030E-1,4.681065674E0,8.671766968E0,9.855109417E0
4.809103875E0,1.053808594E-1,4.688101044E0,8.656199341E0,9.844754113E0
4.819101875E0,1.050814819E-1,4.684807892E0,8.663234711E0,9.849370678E0
4.829098875E0,1.037342834E-1,4.682113495E0,8.680448914E0,9.863221630E0
4.839097875E0,1.071771240E-1,4.679119720E0,8.657845917E0,9.841948192E0
4.849095875E0,1.056802368E-1,4.685855713E0,8.659193115E0,9.846321013E0
4.859093875E0,1.031355286E-1,4.691394196E0,8.667126617E0,9.855906870E0
4.869092875E0,1.026864624E-1,4.691843262E0,8.668324127E0,9.857169009E0
4.879091875E0,1.047821045E-1,4.687502289E0,8.668174438E0,9.854993916E0
4.889090875E0,1.088237000E-1,4.687352600E0,8.663983154E0,9.851280175E0
4.899088875E0,1.017883301E-1,4.678820343E0,8.662486267E0,9.845831046E0
4.909087875E0,9.624984741E-2,4.686005402E0,8.663683777E0,9.850245035E0
4.919086875E0,1.032852173E-1,4.686155090E0,8.663384399E0,9.850124193E0
4.929084875E0,1.101708984E-1,4.685556335E0,8.653804321E0,9.841488964E0
4.939083875E0,1.046324158E-1,4.692442017E0,8.658444672E0,9.848787954E0
4.949081875E0,9.789642334E-2,4.691394196E0,8.672665100E0,9.860724271E0
4.959080875E0,9.610015869E-2,4.683460693E0,8.663085022E0,9.848506557E0
4.969078875E0,1.013392639E-1,4.682861938E0,8.671018524E0,9.855253819E0
4.979076875E0,1.062789917E-1,4.686005402E0,8.660690002E0,9.847715124E0
4.989075875E0,1.080752563E-1,4.688101044E0,8.662336578E0,9.850180032E0
4.999073875E0,1.044827271E-1,4.687502289E0,8.660390625E0,9.848145009E0
5.009072875E0,1.098715210E-1,4.693489838E0,8.666078796E0,9.856056022E0
5.019070875E0,1.023870850E-1,4.689897308E0,8.662785645E0,9.851369194E0
5.029068875E0,9.864486694E-2,4.683161316E0,8.658594360E0,9.844439396E0
5.039067875E0,1.046324158E-1,4.693639526E0,8.663234711E0,9.853569688E0
5.049064875E0,9.954299927E-2,4.689747620E0,8.665929108E0,9.854033126E0
5.059063875E0,1.011895752E-1,4.677622833E0,8.655151520E0,9.838802901E0
5.069061875E0,1.056802368E-1,4.687202911E0,8.663384399E0,9.850648136E0
5.079060875E0,1.047821045E-1,4.694238281E0,8.665030975E0,9.855435766E0
5.089058875E0,1.031355286E-1,4.687202911E0,8.672365723E0,9.858520949E0
5.099057875E0,9.834548950E-2,4.693639526E0,8.668922882E0,9.858506366E0
5.109056875E0,1.014889526E-1,4.678371277E0,8.662486267E0,9.845614564E0
5.119055875E0,1.049317932E-1,4.687053223E0,8.662935333E0,9.850173967E0
5.129055875E0,1.028361511E-1,4.685706024E0,8.666228485E0,9.852407441E0
5.139054875E0,1.071771240E-1,4.690196686E0,8.644972687E0,9.835902838E0
5.149052875E0,1.028361511E-1,4.687352600E0,8.666078796E0,9.853058986E0
5.159051875E0,9.894424438E-2,4.691992950E0,8.672665100E0,9.861019610E0
5.169050875E0,1.014889526E-1,4.692891083E0,8.658744049E0,9.849232215E0
5.179048875E0,1.040336609E-1,4.690496063E0,8.664432220E0,9.853119406E0
5.189046875E0,9.954299927E-2,4.691094818E0,8.669371948E0,9.857702033E0
5.199045875E0,9.894424438E-2,4.690346375E0,8.667875061E0,9.856023394E0
5.209044875E0,1.007405090E-1,4.684508514E0,8.668773193E0,9.854054868E0
5.219043875E0,1.032852173E-1,4.681215363E0,8.670569458E0,9.854096602E0
5.229041875E0,1.068777466E-1,4.689148865E0,8.660839691E0,9.849349424E0
5.239040875E0,1.101708984E-1,4.692442017E0,8.667276306E0,9.856613428E0
5.249038875E0,1.032852173E-1,4.689747620E0,8.665779419E0,9.853939999E0
5.259037875E0,9.894424438E-2,4.681215363E0,8.660989380E0,9.845623610E0
5.269035875E0,1.035845947E-1,4.679568787E0,8.662037201E0,9.845810392E0
5.279032875E0,9.999206543E-2,4.688400421E0,8.670270081E0,9.857214626E0
5.289029875E0,1.056802368E-1,4.686304779E0,8.663683777E0,9.850484119E0
5.299026875E0,9.565109253E-2,4.681215363E0,8.657995605E0,9.842957600E0
5.309023875E0,9.969268799E-2,4.689298553E0,8.663983154E0,9.852109604E0
5.319020875E0,1.061293030E-1,4.688849487E0,8.659642181E0,9.848145798E0
5.329017875E0,1.049317932E-1,4.688999176E0,8.677754517E0,9.864134397E0
5.339013875E0,1.088237000E-1,4.685855713E0,8.663085022E0,9.849778092E0
5.349011875E0,1.038839722E-1,4.683610382E0,8.662935333E0,9.848525102E0
5.359008875E0,1.077758789E-1,4.689148865E0,8.662037201E0,9.850412234E0
5.369005875E0,1.001417542E-1,4.689148865E0,8.663983154E0,9.852042912E0
5.379003875E0,9.954299927E-2,4.682712250E0,8.666078796E0,9.850818470E0
5.389001875E0,1.046324158E-1,4.686005402E0,8.664132843E0,9.850725480E0
5.398999875E0,1.100212097E-1,4.688250732E0,8.667425995E0,9.854748752E0
5.408996875E0,1.089733887E-1,4.681365051E0,8.665929108E0,9.850146255E0
5.418994875E0,1.002914429E-1,4.682412872E0,8.663683777E0,9.848576814E0
5.428991875E0,9.654922485E-2,4.687352600E0,8.667276306E0,9.854048646E0
5.438989875E0,1.071771240E-1,4.685406647E0,8.653205566E0,9.840858141E0
5.448987875E0,1.004411316E-1,4.690046997E0,8.669371948E0,9.857212549E0
5.458984875E0,1.007405090E-1,4.689897308E0,8.671317902E0,9.858855895E0
5.468983875E0,1.065783691E-1,4.691094818E0,8.665629730E0,9.854484673E0
5.478982875E0,1.007405090E-1,4.689148865E0,8.675658875E0,9.862318319E0
5.488981875E0,1.017883301E-1,4.679568787E0,8.665629730E0,9.848952407E0
5.498980875E0,1.016386414E-1,4.677922211E0,8.669222260E0,9.851329921E0
5.508977875E0,1.061293030E-1,4.690645752E0,8.661139069E0,9.850317303E0
5.518975875E0,9.879455566E-2,4.680616608E0,8.662935333E0,9.847049344E0
5.528974875E0,1.065783691E-1,4.682712250E0,8.659941559E0,9.845493424E0
5.538972875E0,1.016386414E-1,4.694837036E0,8.665330353E0,9.855951265E0
5.548971875E0,1.113684082E-1,4.689298553E0,8.657546539E0,9.846574832E0
5.558969875E0,1.046324158E-1,4.683610382E0,8.660989380E0,9.846821375E0
5.568967875E0,1.013392639E-1,4.688250732E0,8.661288757E0,9.849258222E0
5.578965875E0,1.038839722E-1,4.687951355E0,8.668324127E0,9.855329673E0
5.588963875E0,1.046324158E-1,4.686753845E0,8.663833466E0,9.850818233E0
5.598962875E0,1.005908203E-1,4.686155090E0,8.662785645E0,9.849569695E0
5.608959875E0,1.058299255E-1,4.683161316E0,8.668024750E0,9.852809394E0
5.618957875E0,1.068777466E-1,4.679269409E0,8.663683777E0,9.847151956E0
5.628954875E0,1.023870850E-1,4.694537659E0,8.665030975E0,9.855553193E0
5.638951875E0,9.834548950E-2,4.688699799E0,8.654852142E0,9.843781958E0
5.648948875E0,1.031355286E-1,4.685556335E0,8.665480042E0,9.851681047E0
5.658945875E0,1.040336609E-1,4.694238281E0,8.669970703E0,9.859771196E0
5.668942875E0,1.013392639E-1,4.691394196E0,8.670719147E0,9.859047604E0
5.678938875E0,9.834548950E-2,4.686604156E0,8.659043427E0,9.846469592E0
5.688936875E0,1.019380188E-1,4.690645752E0,8.660839691E0,9.850009801E0
5.698933875E0,1.080752563E-1,4.682861938E0,8.658744049E0,9.844527653E0
5.708931875E0,1.040336609E-1,4.684059448E0,8.663983154E0,9.849661924E0
5.718928875E0,1.044827271E-1,4.689897308E0,8.663983154E0,9.852444240E0
5.728926875E0,1.047821045E-1,4.683311005E0,8.658294983E0,9.844310706E0
5.738923875E0,1.053808594E-1,4.701722717E0,8.658444672E0,9.853221086E0
5.748921875E0,1.031355286E-1,4.687651978E0,8.665480042E0,9.852677928E0
5.758919875E0,9.729766846E-2,4.683161316E0,8.664581909E0,9.849692706E0
5.768916875E0,1.058299255E-1,4.691094818E0,8.665030975E0,9.853950090E0
5.778914875E0,1.056802368E-1,4.693340149E0,8.653954010E0,9.845279583E0
5.788911625E0,9.894424438E-2,4.681365051E0,8.660839691E0,9.845563105E0
5.798908625E0,1.053808594E-1,4.687502289E0,8.666228485E0,9.853288740E0
5.808905625E0,1.040336609E-1,4.677772522E0,8.662186890E0,9.845093219E0
5.818902625E0,1.128652954E-1,4.689148865E0,8.668174438E0,9.855866464E0
5.828900625E0,1.028361511E-1,4.682412872E0,8.652457123E0,9.838728568E0
5.838898625E0,1.035845947E-1,4.677622833E0,8.665779419E0,9.848178414E0
5.848896625E0,1.161584473E-1,4.687053223E0,8.654253387E0,9.842665411E0
5.858894625E0,1.085243225E-1,4.689897308E0,8.661737823E0,9.850513510E0
5.868892625E0,1.095721436E-1,4.684957581E0,8.669072571E0,9.854625961E0
5.878890625E0,1.065783691E-1,4.684059448E0,8.669371948E0,9.854429554E0
5.888888625E0,1.019380188E-1,4.687651978E0,8.665779419E0,9.852928771E0
5.898885625E0,1.088237000E-1,4.685556335E0,8.662635956E0,9.849240705E0
5.908882625E0,1.077758789E-1,4.683909760E0,8.666677551E0,9.852001119E0
5.918880625E0,1.085243225E-1,4.698429565E0,8.659941559E0,9.852999833E0
5.928878625E0,1.049317932E-1,4.686155090E0,8.662486267E0,9.849351681E0
5.938876625E0,1.026864624E-1,4.681365051E0,8.655899963E0,9.841256395E0
5.948873625E0,9.864486694E-2,4.683011627E0,8.651708679E0,9.838312446E0
5.958871625E0,9.310638428E-2,4.682562561E0,8.660839691E0,9.846075619E0
5.968869625E0,1.056802368E-1,4.679269409E0,8.673263855E0,9.855568802E0
5.978867625E0,1.029858398E-1,4.688550110E0,8.673114166E0,9.859818333E0
5.988865625E0,1.041833496E-1,4.687801666E0,8.668024750E0,9.854998310E0
5.998862625E0,1.059796143E-1,4.686903534E0,8.655899963E0,9.843927092E0
6.008859625E0,9.834548950E-2,4.689148865E0,8.666228485E0,9.853999445E0
6.018856625E0,1.044827271E-1,4.680466919E0,8.661588135E0,9.845851727E0
6.028853625E0,9.984237671E-2,4.678820343E0,8.665180664E0,9.848181773E0
6.038851625E0,1.151106262E-1,4.694238281E0,8.669222260E0,9.859236181E0
6.048849625E0,1.061293030E-1,4.685706024E0,8.661737823E0,9.848492600E0
6.058846625E0,1.062789917E-1,4.693190460E0,8.655151520E0,9.846267300E0
6.068843625E0,1.107696533E-1,4.685855713E0,8.663983154E0,9.850589717E0
6.078841625E0,1.118174744E-1,4.682562561E0,8.667875061E0,9.852459254E0
6.088838625E0,1.023870850E-1,4.676575012E0,8.647517395E0,9.831601805E0
6.098835625E0,1.028361511E-1,4.686903534E0,8.661438446E0,9.848764185E0
6.108832625E0,1.046324158E-1,4.695435791E0,8.655899963E0,9.847977934E0
6.118830625E0,1.103205872E-1,4.688550110E0,8.668324127E0,9.855684448E0
6.128827625E0,9.610015869E-2,4.693489838E0,8.666827240E0,9.856570220E0
6.138826625E0,9.984237671E-2,4.683161316E0,8.648265839E0,9.835368342E0
6.148824625E0,1.062789917E-1,4.684807892E0,8.668174438E0,9.853728650E0
6.158822625E0,1.014889526E-1,4.688550110E0,8.666976929E0,9.854404661E0
6.168819625E0,1.025367737E-1,4.693040771E0,8.671766968E0,9.860765073E0
6.178817625E0,1.076261902E-1,4.681664429E0,8.672964478E0,9.856463770E0
6.188813625E0,1.016386414E-1,4.685107269E0,8.663683777E0,9.849871934E0
6.198811625E0,1.037342834E-1,4.690046997E0,8.659791870E0,9.848822106E0
6.208809625E0,1.097218323E-1,4.682412872E0,8.667425995E0,9.851969476E0
6.218807625E0,1.026864624E-1,4.687352600E0,8.656798096E0,9.844895742E0
6.228804625E0,1.028361511E-1,4.692142639E0,8.659642181E0,9.849679209E0
6.238802625E0,1.058299255E-1,4.685855713E0,8.666527863E0,9.852773667E0
6.248799625E0,9.654922485E-2,4.686304779E0,8.662635956E0,9.849468815E0
6.258796625E0,1.046324158E-1,4.682263184E0,8.663833466E0,9.848682490E0
6.268794625E0,1.004411316E-1,4.695286102E0,8.663085022E0,9.854178916E0
6.278792625E0,1.035845947E-1,4.690645752E0,8.668024750E0,9.856345185E0
6.288789625E0,1.098715210E-1,4.681514740E0,8.667126617E0,9.851280923E0
6.298786625E0,1.011895752E-1,4.689897308E0,8.661737823E0,9.850435433E0
6.308784625E0,9.819580078E-2,4.684807892E0,8.659492493E0,9.846008208E0
6.318781625E0,1.041833496E-1,4.683161316E0,8.656498718E0,9.842653308E0
6.328779625E0,1.100212097E-1,4.696333923E0,8.656648407E0,9.849122734E0
6.338777625E0,1.049317932E-1,4.692292328E0,8.652756500E0,9.843719471E0
6.348774625E0,1.073268127E-1,4.685406647E0,8.660091248E0,9.846914994E0
6.358772625E0,9.969268799E-2,4.693489838E0,8.653355255E0,9.844762194E0
6.368769625E0,1.037342834E-1,4.690795441E0,8.653954010E0,9.844046052E0
6.378766625E0,1.080752563E-1,4.692442017E0,8.657845917E0,9.848298749E0
6.388764625E0,9.729766846E-2,4.699028320E0,8.662336578E0,9.855273156E0
6.398761625E0,1.037342834E-1,4.686604156E0,8.659642181E0,9.847051438E0
6.408758625E0,9.639953613E-2,4.679269409E0,8.664282532E0,9.847570607E0
6.418755625E0,9.789642334E-2,4.684807892E0,8.671168213E0,9.856275507E0
6.428752625E0,1.091230774E-1,4.683311005E0,8.659642181E0,9.845542774E0
6.438749625E0,9.595046997E-2,4.684957581E0,8.662336578E0,9.848558728E0
6.448747625E0,1.025367737E-1,4.694687347E0,8.668324127E0,9.858521504E0
6.458744625E0,1.017883301E-1,4.688101044E0,8.665330353E0,9.852745931E0
6.468742625E0,1.028361511E-1,4.700076141E0,8.663234711E0,9.856618419E0
6.478740625E0,1.053808594E-1,4.690645752E0,8.665030975E0,9.853731501E0
6.488738625E0,1.067280579E-1,4.679868164E0,8.660540314E0,9.844669392E0
6.498736625E0,1.011895752E-1,4.695435791E0,8.649613037E0,9.842416486E0
6.508733625E0,1.013392639E-1,4.691394196E0,8.656798096E0,9.846806712E0
6.518730625E0,1.005908203E-1,4.678071899E0,8.653954010E0,9.837956862E0
6.528728625E0,9.954299927E-2,4.684508514E0,8.672066345E0,9.856939866E0
6.538726625E0,1.076261902E-1,4.688999176E0,8.663983154E0,9.852050587E0
6.548724625E0,1.062789917E-1,4.686753845E0,8.665779419E0,9.852547375E0
6.558722625E0,1.050814819E-1,4.684658203E0,8.663085022E0,9.849167817E0
6.568719625E0,1.073268127E-1,4.678071899E0,8.667575684E0,9.850012384E0
6.578718625E0,1.011895752E-1,4.682263184E0,8.668024750E0,9.852333780E0
6.588716625E0,1.047821045E-1,4.696333923E0,8.676856384E0,9.866831727E0
6.598713625E0,1.026864624E-1,4.687352600E0,8.657546539E0,9.845553869E0
6.608710625E0,9.909393311E-2,4.692591705E0,8.663683777E0,9.853408197E0
6.618707625E0,1.056802368E-1,4.685855713E0,8.663384399E0,9.850007174E0
6.628704625E0,1.017883301E-1,4.690645752E0,8.661588135E0,9.850666346E0
6.638701625E0,1.037342834E-1,4.690046997E0,8.655001831E0,9.844610624E0
6.648698625E0,1.113684082E-1,4.694387970E0,8.662486267E0,9.853342055E0
6.658695625E0,1.025367737E-1,4.695286102E0,8.670868835E0,9.861044150E0
6.668693625E0,1.055305481E-1,4.700974274E0,8.673413544E0,9.866022416E0
6.678691625E0,9.954299927E-2,4.685256958E0,8.660240936E0,9.846893655E0
6.688688625E0,9.924362183E-2,4.684508514E0,8.667425995E0,9.852854545E0
6.698685625E0,9.984237671E-2,4.686155090E0,8.654702454E0,9.842453586E0
6.708683625E0,1.065783691E-1,4.685855713E0,8.659492493E0,9.846593977E0
6.718681625E0,1.086740112E-1,4.686604156E0,8.647517395E0,9.836443751E0
6.728678625E0,1.062789917E-1,4.695735168E0,8.652307434E0,9.844980850E0
6.738676625E0,1.050814819E-1,4.693040771E0,8.658594360E0,9.849209618E0
6.748673625E0,1.053808594E-1,4.691094818E0,8.668473816E0,9.856972863E0
6.758671625E0,9.924362183E-2,4.688999176E0,8.661887512E0,9.850119687E0
6.768669625E0,1.059796143E-1,4.688101044E0,8.670868835E0,9.857661459E0
6.778667625E0,1.049317932E-1,4.686454468E0,8.669671326E0,9.855813871E0
6.788665250E0,1.011895752E-1,4.694088593E0,8.674161987E0,9.863356083E0
6.798663250E0,1.029858398E-1,4.691992950E0,8.654552765E0,9.845135220E0
6.808661250E0,1.089733887E-1,4.685556335E0,8.641679535E0,9.830815763E0
6.818659250E0,9.969268799E-2,4.685256958E0,8.655450897E0,9.842682644E0
6.828657250E0,1.004411316E-1,4.673880615E0,8.669072571E0,9.849267367E0
6.838654250E0,1.016386414E-1,4.675976257E0,8.675060120E0,9.855544249E0
6.848652250E0,1.020877075E-1,4.680766296E0,8.684340820E0,9.865990599E0
6.858650250E0,1.095721436E-1,4.682861938E0,8.673712921E0,9.857712606E0
6.868647250E0,1.049317932E-1,4.678520966E0,8.656798096E0,9.840717574E0
6.878644250E0,1.016386414E-1,4.683760071E0,8.656798096E0,9.843174899E0
6.888641250E0,1.080752563E-1,4.693789215E0,8.662186890E0,9.852756932E0
6.898638250E0,1.043330383E-1,4.686304779E0,8.663983154E0,9.850733067E0
6.908635250E0,1.092727661E-1,4.690046997E0,8.662336578E0,9.851119549E0
6.918632250E0,1.046324158E-1,4.681514740E0,8.666228485E0,9.850433714E0
6.928629250E0,1.041833496E-1,4.681963806E0,8.666827240E0,9.851169152E0
6.938627250E0,1.071771240E-1,4.684658203E0,8.658444672E0,9.845109118E0
6.948624250E0,1.047821045E-1,4.678820343E0,8.656199341E0,9.840331606E0
6.958622250E0,1.059796143E-1,4.691094818E0,8.663234711E0,9.852372198E0
6.968620250E0,9.924362183E-2,4.677922211E0,8.658893738E0,9.842217548E0
6.978618250E0,1.058299255E-1,4.682712250E0,8.649163971E0,9.836006882E0
6.988615250E0,1.017883301E-1,4.689897308E0,8.653504944E0,9.843203007E0
6.998613250E0,1.058299255E-1,4.681814117E0,8.665779419E0,9.850193721E0
7.008611250E0,9.624984741E-2,4.679868164E0,8.664881287E0,9.848380465E0
7.018609250E0,1.068777466E-1,4.690346375E0,8.659342804E0,9.848603442E0
7.028607250E0,1.076261902E-1,4.699028320E0,8.659342804E0,9.852749279E0
7.038604250E0,1.083746338E-1,4.684059448E0,8.669222260E0,9.854317458E0
7.048602250E0,9.939331055E-2,4.691094818E0,8.658145294E0,9.847828672E0
7.058599250E0,1.016386414E-1,4.684358826E0,8.656049652E0,9.842801613E0
7.068598250E0,1.095721436E-1,4.689148865E0,8.650660858E0,9.840429686E0
7.078596250E0,1.118174744E-1,4.676874390E0,8.657845917E0,9.840932533E0
7.088593250E0,9.909393311E-2,4.684358826E0,8.658744049E0,9.845145287E0
7.098590250E0,1.055305481E-1,4.684508514E0,8.666378174E0,9.851998141E0
7.108588250E0,1.052311707E-1,4.685855713E0,8.659941559E0,9.846974417E0
7.118585250E0,1.026864624E-1,4.691094818E0,8.659043427E0,9.848652099E0
7.128583250E0,1.055305481E-1,4.687951355E0,8.666976929E0,9.854162252E0
7.138580250E0,1.035845947E-1,4.688250732E0,8.668324127E0,9.855468932E0
7.148577250E0,1.034349060E-1,4.681814117E0,8.649613037E0,9.835948755E0
7.158574250E0,9.475296021E-2,4.688400421E0,8.660690002E0,9.848737379E0
7.168572250E0,1.041833496E-1,4.688400421E0,8.665480042E0,9.853045064E0
7.178571250E0,1.017883301E-1,4.688999176E0,8.654852142E0,9.843959556E0
7.188569250E0,1.041833496E-1,4.686005402E0,8.651409302E0,9.839531681E0
7.198567250E0,1.085243225E-1,4.681065674E0,8.667425995E0,9.851315991E0
7.208565250E0,9.999206543E-2,4.678071899E0,8.663534088E0,9.846378929E0
7.218562250E0,1.032852173E-1,4.692442017E0,8.666228485E0,9.855617488E0
7.228560250E0,1.013392639E-1,4.688849487E0,8.661288757E0,9.849543243E0
7.238557250E0,9.909393311E-2,4.694537659E0,8.652906189E0,9.844861043E0
7.248554250E0,1.086740112E-1,4.685556335E0,8.668024750E0,9.853978957E0
7.258551250E0,1.041833496E-1,4.687352600E0,8.660091248E0,9.847807319E0
7.268547250E0,1.017883301E-1,4.694537659E0,8.670419769E0,9.860285172E0
7.278544250E0,1.098715210E-1,4.688400421E0,8.663683777E0,9.851527133E0
7.288541250E0,1.121168518E-1,4.684807892E0,8.656798096E0,9.843787302E0
7.298538250E0,1.002914429E-1,4.688699799E0,8.663534088E0,9.851435787E0
7.308535250E0,9.610015869E-2,4.684358826E0,8.672365723E0,9.857097954E0
7.318533250E0,9.969268799E-2,4.691843262E0,8.667276306E0,9.856216840E0
7.328530250E0,9.789642334E-2,4.689448242E0,8.663534088E0,9.851767934E0
7.338528250E0,1.022373962E-1,4.687951355E0,8.670270081E0,9.857024077E0
7.348525250E0,1.001417542E-1,4.693639526E0,8.651259613E0,9.842996153E0
7.358522250E0,1.019380188E-1,4.700974274E0,8.664282532E0,9.857958322E0
7.368519250E0,1.094224548E-1,4.686903534E0,8.662486267E0,9.849756664E0
7.378517250E0,1.055305481E-1,4.676275635E0,8.650511169E0,9.834125991E0
7.388514250E0,1.011895752E-1,4.685256958E0,8.661288757E0,9.847831996E0
7.398512250E0,9.744735718E-2,4.688550110E0,8.665779419E0,9.853310665E0
7.408509250E0,1.014889526E-1,4.693938904E0,8.656798096E0,9.848020903E0
7.418508250E0,1.008901978E-1,4.697232056E0,8.658444672E0,9.851032025E0
7.428506250E0,1.055305481E-1,4.686005402E0,8.658294983E0,9.845600811E0
7.438503250E0,1.050814819E-1,4.690346375E0,8.679101715E0,9.865961576E0
7.448502250E0,1.025367737E-1,4.685256958E0,8.673413544E0,9.858511503E0
7.458500250E0,9.849517822E-2,4.686005402E0,8.665629730E0,9.851978814E0
7.468499250E0,1.100212097E-1,4.685107269E0,8.671617279E0,9.856940754E0
7.478497250E0,9.879455566E-2,4.684807892E0,8.648116150E0,9.836010283E0
7.488496250E0,9.295669556E-2,4.690645752E0,8.651558990E0,9.841761605E0
7.498495250E0,1.100212097E-1,4.692292328E0,8.660091248E0,9.850222961E0
7.508492250E0,1.059796143E-1,4.685855713E0,8.672216034E0,9.857778978E0
7.518491250E0,1.004411316E-1,4.681065674E0,8.661588135E0,9.846094316E0
7.528488250E0,1.064286804E-1,4.692292328E0,8.661588135E0,9.851499549E0
7.538486250E0,1.086740112E-1,4.690196686E0,8.662785645E0,9.851579067E0
7.548484250E0,9.595046997E-2,4.680466919E0,8.663384399E0,9.847345141E0
7.558482250E0,1.004411316E-1,4.679718475E0,8.659193115E0,9.843346933E0
7.568480250E0,1.091230774E-1,4.679868164E0,8.659642181E0,9.843905556E0
7.578477250E0,1.046324158E-1,4.680017853E0,8.659642181E0,9.843927964E0
7.588475250E0,1.031355286E-1,4.686753845E0,8.664282532E0,9.851197406E0
7.598473250E0,1.008901978E-1,4.690346375E0,8.660091248E0,9.849198361E0
7.608471250E0,1.025367737E-1,4.703668671E0,8.668922882E0,9.863327871E0
7.618469250E0,1.106199646E-1,4.692292328E0,8.668473816E0,9.857600234E0
7.628467250E0,9.639953613E-2,4.688550110E0,8.657845917E0,9.846323726E0
7.638466250E0,9.834548950E-2,4.679119720E0,8.652606812E0,9.837247472E0
7.648464250E0,1.118174744E-1,4.675826569E0,8.662635956E0,9.844649255E0
7.658462250E0,1.010398865E-1,4.681664429E0,8.656349030E0,9.841776740E0
7.668460250E0,1.058299255E-1,4.685855713E0,8.664282532E0,9.850798725E0
7.678458250E0,1.145118713E-1,4.688849487E0,8.659791870E0,9.848371323E0
7.688456250E0,1.041833496E-1,4.684358826E0,8.662785645E0,9.848752556E0
7.698453250E0,1.007405090E-1,4.688550110E0,8.659941559E0,9.848209918E0
7.708451250E0,1.017883301E-1,4.683460693E0,8.670719147E0,9.855279572E0
7.718448250E0,1.070274353E-1,4.688999176E0,8.665629730E0,9.853492110E0
7.728446250E0,1.029858398E-1,4.681065674E0,8.659492493E0,9.844277127E0
7.738443250E0,9.669891357E-2,4.688849487E0,8.650211792E0,9.839757326E0
7.748440250E0,1.077758789E-1,4.686454468E0,8.657546539E0,9.845180709E0
7.758436250E0,1.058299255E-1,4.689747620E0,8.653055878E0,9.842779523E0
7.768433250E0,9.669891357E-2,4.691543884E0,8.665030975E0,9.854070048E0
7.778430250E0,1.068777466E-1,4.678670654E0,8.663534088E0,9.846735745E0
7.788427000E0,1.067280579E-1,4.683460693E0,8.674012299E0,9.858229268E0
7.798424000E0,1.098715210E-1,4.694088593E0,8.666976929E0,9.857130848E0
7.808422000E0,1.113684082E-1,4.690645752E0,8.665629730E0,9.854323879E0
7.818421000E0,1.017883301E-1,4.677922211E0,8.665030975E0,9.847643316E0
7.828418000E0,9.954299927E-2,4.691693573E0,8.662935333E0,9.852326932E0
7.838415000E0,1.032852173E-1,4.681963806E0,8.660240936E0,9.845365711E0
7.848414000E0,1.020877075E-1,4.681514740E0,8.663234711E0,9.847773241E0
7.858411000E0,1.041833496E-1,4.696333923E0,8.657845917E0,9.850111797E0
7.868409000E0,1.119671631E-1,4.692891083E0,8.654852142E0,9.845924485E0
7.878407000E0,1.095721436E-1,4.684957581E0,8.658444672E0,9.845277940E0
7.888405000E0,1.077758789E-1,4.685556335E0,8.662785645E0,9.849360839E0
7.898403000E0,1.053808594E-1,4.687352600E0,8.664731598E0,9.851900994E0
7.908401000E0,9.804611206E-2,4.679568787E0,8.657995605E0,9.842198178E0
7.918397000E0,1.029858398E-1,4.687951355E0,8.651558990E0,9.840577572E0
7.928394000E0,1.067280579E-1,4.678520966E0,8.666976929E0,9.849692299E0
7.938392000E0,1.025367737E-1,4.690496063E0,8.668024750E0,9.856262992E0
7.948390000E0,1.016386414E-1,4.685256958E0,8.654552765E0,9.841912758E0
7.958387000E0,1.025367737E-1,4.679568787E0,8.655899963E0,9.840400500E0
7.968384000E0,1.076261902E-1,4.692741394E0,8.664432220E0,9.854227057E0
7.978382000E0,1.035845947E-1,4.685107269E0,8.663234711E0,9.849497223E0
7.988378000E0,1.071771240E-1,4.689597931E0,8.647816772E0,9.838117229E0
7.998376000E0,1.023870850E-1,4.703668671E0,8.663683777E0,9.858721959E0
8.008374000E0,1.031355286E-1,4.692591705E0,8.671916656E0,9.860689243E0
8.018372000E0,1.008901978E-1,4.686454468E0,8.664881287E0,9.851558355E0
8.028370000E0,1.101708984E-1,4.681814117E0,8.663983154E0,9.848661084E0
8.038368000E0,1.010398865E-1,4.693938904E0,8.662635956E0,9.853148390E0
8.048366000E0,8.966354370E-2,4.694238281E0,8.661887512E0,9.852522919E0
8.058363000E0,1.008901978E-1,4.682263184E0,8.656349030E0,9.842060042E0
8.068361000E0,1.064286804E-1,4.685855713E0,8.660989380E0,9.847908807E0
8.078359000E0,1.052311707E-1,4.696483612E0,8.665929108E0,9.857299793E0
8.088356000E0,9.954299927E-2,4.692741394E0,8.662635956E0,9.852562728E0
8.098353000E0,1.046324158E-1,4.688101044E0,8.660989380E0,9.848958137E0
8.108351000E0,1.016386414E-1,4.689597931E0,8.669821014E0,9.857406129E0
8.118348000E0,9.624984741E-2,4.691543884E0,8.661438446E0,9.850906761E0
8.128346000E0,9.699829102E-2,4.695136414E0,8.662785645E0,9.853809910E0
8.138344000E0,1.076261902E-1,4.697531433E0,8.662186890E0,9.854535335E0
8.148342000E0,1.002914429E-1,4.682861938E0,8.657247162E0,9.843128706E0
8.158339000E0,1.025367737E-1,4.688400421E0,8.667276306E0,9.854607596E0
8.168337000E0,1.001417542E-1,4.678221588E0,8.669821014E0,9.851983659E0
8.178334000E0,1.058299255E-1,4.684807892E0,8.663534088E0,9.849642016E0
8.188332000E0,1.035845947E-1,4.700375519E0,8.668473816E0,9.861374046E0
8.198329000E0,9.505233765E-2,4.690645752E0,8.655750275E0,9.845466232E0
8.208326000E0,1.007405090E-1,4.687352600E0,8.667425995E0,9.854222264E0
8.218324000E0,1.061293030E-1,4.693190460E0,8.670569458E0,9.859821238E0
8.228321000E0,1.043330383E-1,4.688849487E0,8.659043427E0,9.847600112E0
8.238318000E0,1.074765015E-1,4.691992950E0,8.659791870E0,9.849789047E0
8.248315000E0,1.059796143E-1,4.691094818E0,8.667126617E0,9.855794543E0
8.258311000E0,1.025367737E-1,4.684508514E0,8.660989380E0,9.847226556E0
8.268308000E0,1.038839722E-1,4.685855713E0,8.660091248E0,9.847091756E0
8.278304000E0,1.034349060E-1,4.691394196E0,8.656648407E0,9.846696904E0
8.288301000E0,1.076261902E-1,4.689148865E0,8.666527863E0,9.854359729E0
8.298298000E0,1.061293030E-1,4.693789215E0,8.667425995E0,9.857342137E0
8.308294000E0,9.759704590E-2,4.680017853E0,8.668773193E0,9.851889208E0
8.318292000E0,1.001417542E-1,4.681215363E0,8.674161987E0,9.857225361E0
8.328290000E0,1.002914429E-1,4.686903534E0,8.670419769E0,9.856637463E0
8.338288000E0,9.984237671E-2,4.691244507E0,8.666976929E0,9.855670074E0
8.348286000E0,1.022373962E-1,4.684658203E0,8.669521637E0,9.854799865E0
8.358284000E0,9.639953613E-2,4.679419098E0,8.664881287E0,9.848168544E0
8.368282000E0,1.028361511E-1,4.687801666E0,8.667875061E0,9.854852501E0
8.378280000E0,1.035845947E-1,4.685706024E0,8.661139069E0,9.847938905E0
8.388277000E0,1.041833496E-1,4.691094818E0,8.656049652E0,9.846035768E0
8.398274000E0,1.124162292E-1,4.680915985E0,8.665030975E0,9.849181371E0
8.408271000E0,1.065783691E-1,4.683909760E0,8.661737823E0,9.847642952E0
8.418269000E0,1.017883301E-1,4.682263184E0,8.654702454E0,9.840621116E0
8.428266000E0,9.879455566E-2,4.678670654E0,8.658744049E0,9.842437095E0
8.438263000E0,1.067280579E-1,4.690945129E0,8.662186890E0,9.851387658E0
8.448260000E0,9.984237671E-2,4.692741394E0,8.666677551E0,9.856119422E0
8.458258000E0,9.789642334E-2,4.694238281E0,8.662336578E0,9.852996080E0
8.468255000E0,9.984237671E-2,4.689448242E0,8.650511169E0,9.840337230E0
8.478252000E0,1.046324158E-1,4.689597931E0,8.661139069E0,9.849802367E0
8.488250000E0,1.019380188E-1,4.690046997E0,8.663983154E0,9.852488837E0
8.498248000E0,1.019380188E-1,4.690645752E0,8.667126617E0,9.855538176E0
8.508246000E0,1.035845947E-1,4.682562561E0,8.666976929E0,9.851579111E0
8.518244000E0,1.023870850E-1,4.684358826E0,8.665629730E0,9.851235422E0
8.528241000E0,1.064286804E-1,4.692891083E0,8.667425995E0,9.856917731E0
8.538239000E0,1.109193420E-1,4.681365051E0,8.662785645E0,9.847402549E0
8.548236000E0,1.071771240E-1,4.680616608E0,8.663085022E0,9.847268701E0
8.558234000E0,1.016386414E-1,4.691693573E0,8.666827240E0,9.855770564E0
8.568233000E0,9.624984741E-2,4.690346375E0,8.662785645E0,9.851521114E0
8.578231000E0,9.595046997E-2,4.687352600E0,8.668024750E0,9.854701109E0
8.588230000E0,1.104702759E-1,4.678820343E0,8.657396851E0,9.841447237E0
8.598227000E0,1.053808594E-1,4.683011627E0,8.661139069E0,9.846676241E0
8.608224000E0,1.014889526E-1,4.685556335E0,8.667425995E0,9.853375643E0
8.618221000E0,1.052311707E-1,4.689897308E0,8.680748291E0,9.867198247E0
8.628219000E0,1.049317932E-1,4.689448242E0,8.664132843E0,9.852366894E0
8.638216000E0,1.022373962E-1,4.687801666E0,8.680598602E0,9.866039177E0
8.648213000E0,1.008901978E-1,4.681814117E0,8.668922882E0,9.852907500E0
8.658210000E0,1.046324158E-1,4.687951355E0,8.654552765E0,9.843227083E0
8.668208000E0,1.067280579E-1,4.693489838E0,8.660989380E0,9.851546821E0
8.678206000E0,1.038839722E-1,4.685107269E0,8.665629730E0,9.851607007E0
8.688204000E0,1.080752563E-1,4.685406647E0,8.665779419E0,9.851926139E0
8.698202000E0,9.580078125E-2,4.683311005E0,8.664282532E0,9.849485852E0
8.708200000E0,1.059796143E-1,4.685706024E0,8.670719147E0,9.856390980E0
8.718198000E0,9.789642334E-2,4.680766296E0,8.664581909E0,9.848560123E0
8.728195000E0,1.107696533E-1,4.684209137E0,8.664282532E0,9.850069895E0
8.738193000E0,1.032852173E-1,4.688550110E0,8.662186890E0,9.850210743E0
8.748191000E0,1.085243225E-1,4.685706024E0,8.665330353E0,9.851678466E0
8.758189000E0,1.004411316E-1,4.687053223E0,8.661588135E0,9.848942347E0
8.768186000E0,9.699829102E-2,4.697232056E0,8.655001831E0,9.847967016E0
8.778184000E0,9.879455566E-2,4.684209137E0,8.668024750E0,9.853234427E0
8.788182292E0,9.235794067E-2,4.687202911E0,8.660240936E0,9.847749702E0
8.798180292E0,1.038839722E-1,4.692891083E0,8.663534088E0,9.853468501E0
8.808178292E0,1.085243225E-1,4.682712250E0,8.665480042E0,9.850386586E0
8.818176292E0,1.020877075E-1,4.681365051E0,8.676706696E0,9.859555757E0
8.828174292E0,1.008901978E-1,4.687053223E0,8.669222260E0,9.855661385E0
8.838173292E0,1.011895752E-1,4.693489838E0,8.662635956E0,9.852936004E0
8.848171292E0,9.999206543E-2,4.681365051E0,8.656199341E0,9.841491969E0
8.858170292E0,9.669891357E-2,4.686454468E0,8.657845917E0,9.845328947E0
8.868169292E0,9.834548950E-2,4.685256958E0,8.666378174E0,9.852279698E0
8.878167292E0,1.052311707E-1,4.687352600E0,8.672216034E0,9.858482588E0
8.888165292E0,1.043330383E-1,4.685855713E0,8.662785645E0,9.849466192E0
8.898163292E0,1.026864624E-1,4.678820343E0,8.664881287E0,9.847947605E0
8.908162292E0,1.046324158E-1,4.678520966E0,8.657696228E0,9.841504476E0
8.918160292E0,1.086740112E-1,4.688250732E0,8.662336578E0,9.850257863E0
8.928158292E0,1.068777466E-1,4.678820343E0,8.662785645E0,9.846148373E0
8.938155292E0,1.044827271E-1,4.693489838E0,8.668773193E0,9.858366608E0
8.948153292E0,1.044827271E-1,4.693190460E0,8.655899963E0,9.846905987E0
8.958151292E0,1.022373962E-1,4.689448242E0,8.658594360E0,9.847468385E0
8.968149292E0,9.999206543E-2,4.684508514E0,8.657696228E0,9.844304059E0
8.978147292E0,9.984237671E-2,4.684957581E0,8.652307434E0,9.839777435E0
8.988145292E0,1.065783691E-1,4.689597931E0,8.667725372E0,9.855615193E0
8.998143292E0,1.020877075E-1,4.691992950E0,8.677006073E0,9.864869697E0
9.008140292E0,9.984237671E-2,4.680466919E0,8.666677551E0,9.850281156E0
9.018138292E0,9.654922485E-2,4.683011627E0,8.665180664E0,9.850140892E0
9.028136292E0,9.879455566E-2,4.678820343E0,8.668174438E0,9.850805463E0
9.038134292E0,1.022373962E-1,4.689597931E0,8.669671326E0,9.857280666E0
9.048132292E0,1.086740112E-1,4.691992950E0,8.661588135E0,9.851381472E0
9.058128292E0,1.056802368E-1,4.690945129E0,8.662186890E0,9.851376362E0
9.068126292E0,9.969268799E-2,4.685256958E0,8.662336578E0,9.848738315E0
9.078123292E0,1.041833496E-1,4.684059448E0,8.656199341E0,9.842817387E0
9.088120292E0,1.019380188E-1,4.682412872E0,8.665180664E0,9.849910538E0
9.098118292E0,9.894424438E-2,4.680766296E0,8.667875061E0,9.851467970E0
9.108116292E0,1.068777466E-1,4.678520966E0,8.670120392E0,9.852460042E0
9.118114292E0,1.014889526E-1,4.677473145E0,8.673114166E0,9.854540292E0
9.128112292E0,9.834548950E-2,4.688699799E0,8.665180664E0,9.852864232E0
9.138110292E0,9.999206543E-2,4.690645752E0,8.663983154E0,9.852753934E0
9.148108292E0,9.804611206E-2,4.691244507E0,8.664581909E0,9.853545947E0
9.158106292E0,1.040336609E-1,4.689897308E0,8.667575684E0,9.855598815E0
9.168104292E0,1.118174744E-1,4.678371277E0,8.662037201E0,9.845331352E0
9.178102292E0,1.064286804E-1,4.689597931E0,8.648714905E0,9.838898583E0
9.188100292E0,1.100212097E-1,4.682113495E0,8.657995605E0,9.843534901E0
9.198099292E0,1.070274353E-1,4.686753845E0,8.649912415E0,9.838602607E0
9.208097292E0,1.005908203E-1,4.681963806E0,8.661737823E0,9.846654544E0
9.218094292E0,1.019380188E-1,4.687951355E0,8.667875061E0,9.854914375E0
9.228092292E0,9.849517822E-2,4.685706024E0,8.674012299E0,9.859210496E0
9.238089292E0,9.774673462E-2,4.694986725E0,8.663683777E0,9.854535573E0
9.248087292E0,1.008901978E-1,4.691394196E0,8.657845917E0,9.847723303E0
9.258085292E0,9.864486694E-2,4.683909760E0,8.650960236E0,9.838081848E0
9.268083292E0,9.505233765E-2,4.695585480E0,8.666677551E0,9.857426526E0
9.278081292E0,1.073268127E-1,4.694687347E0,8.665030975E0,9.855677051E0
9.288078292E0,1.014889526E-1,4.685256958E0,8.662935333E0,9.849283292E0
9.298076292E0,1.046324158E-1,4.684957581E0,8.669371948E0,9.854835638E0
9.308073292E0,1.044827271E-1,4.685706024E0,8.660091248E0,9.847026861E0
9.318071292E0,1.077758789E-1,4.689597931E0,8.658594360E0,9.847598727E0
9.328069292E0,1.050814819E-1,4.682113495E0,8.666378174E0,9.850854762E0
9.338066292E0,1.058299255E-1,4.677622833E0,8.655899963E0,9.839510126E0
9.348064292E0,1.043330383E-1,4.685107269E0,8.666976929E0,9.852796790E0
9.358061292E0,1.079255676E-1,4.693190460E0,8.660390625E0,9.850890843E0
9.368059292E0,1.016386414E-1,4.687202911E0,8.663085022E0,9.850342311E0
9.378056292E0,1.035845947E-1,4.693040771E0,8.664432220E0,9.854326317E0
9.388053292E0,9.669891357E-2,4.696633301E0,8.657995605E0,9.850309789E0
9.398051292E0,1.044827271E-1,4.687352600E0,8.663683777E0,9.850969882E0
9.408049292E0,1.068777466E-1,4.693489838E0,8.670270081E0,9.859708565E0
9.418047292E0,1.041833496E-1,4.692741394E0,8.660540314E0,9.850768218E0
9.428044292E0,9.909393311E-2,4.687651978E0,8.668174438E0,9.855006279E0
9.438043292E0,1.034349060E-1,4.693040771E0,8.667725372E0,9.857220379E0
9.448041292E0,1.037342834E-1,4.692591705E0,8.660240936E0,9.850428965E0
9.458038292E0,1.077758789E-1,4.684209137E0,8.654253387E0,9.841216011E0
9.468037292E0,1.059796143E-1,4.688999176E0,8.663234711E0,9.851374554E0
9.478034292E0,1.086740112E-1,4.688400421E0,8.659193115E0,9.847564874E0
9.488032292E0,1.005908203E-1,4.688550110E0,8.662486267E0,9.850446131E0
9.498029292E0,1.005908203E-1,4.687951355E0,8.663534088E0,9.851082647E0
9.508027292E0,1.071771240E-1,4.682562561E0,8.651109924E0,9.837661409E0
9.518026292E0,1.070274353E-1,4.683909760E0,8.656199341E0,9.842776668E0
9.528024292E0,1.080752563E-1,4.686155090E0,8.670719147E0,9.856627228E0
9.538022292E0,9.924362183E-2,4.684807892E0,8.655151520E0,9.842201081E0
9.548020292E0,1.058299255E-1,4.677772522E0,8.666677551E0,9.849063687E0
9.558017292E0,1.083746338E-1,4.687053223E0,8.662486267E0,9.849816308E0
9.568015292E0,1.020877075E-1,4.687651978E0,8.668024750E0,9.854905176E0
9.578013292E0,1.008901978E-1,4.681664429E0,8.669371948E0,9.853231482E0
9.588011292E0,9.580078125E-2,4.684358826E0,8.661288757E0,9.847350828E0
9.598008292E0,9.834548950E-2,4.687053223E0,8.664581909E0,9.851554162E0
9.608007292E0,9.550140381E-2,4.690645752E0,8.661288757E0,9.850340148E0
9.618005292E0,1.050814819E-1,4.687352600E0,8.655301208E0,9.843604803E0
9.628003292E0,1.113684082E-1,4.683311005E0,8.665629730E0,9.850834661E0
9.638000292E0,1.061293030E-1,4.678371277E0,8.644373932E0,9.829731528E0
9.647997292E0,1.038839722E-1,4.688400421E0,8.651558990E0,9.840800951E0
9.657995292E0,1.098715210E-1,4.682562561E0,8.652906189E0,9.839270776E0
9.667993292E0,1.022373962E-1,4.682263184E0,8.661887512E0,9.846945530E0
9.677991292E0,9.729766846E-2,4.675527191E0,8.656498718E0,9.838952760E0
9.687988292E0,1.013392639E-1,4.690645752E0,8.667875061E0,9.856190202E0
9.697987292E0,1.067280579E-1,4.694088593E0,8.671467590E0,9.861045014E0
9.707984292E0,1.028361511E-1,4.686005402E0,8.671018524E0,9.856763371E0
9.717982292E0,9.924362183E-2,4.684358826E0,8.657097473E0,9.843698673E0
9.727980292E0,9.849517822E-2,4.688699799E0,8.673114166E0,9.859843632E0
9.737979292E0,1.022373962E-1,4.684358826E0,8.663833466E0,9.849653822E0
9.747977292E0,1.001417542E-1,4.688250732E0,8.663384399E0,9.851088902E0
9.757975292E0,1.016386414E-1,4.688999176E0,8.675958252E0,9.862519722E0
9.767973292E0,1.055305481E-1,4.694088593E0,8.671467590E0,9.861032126E0
9.777971292E0,1.053808594E-1,4.686903534E0,8.663534088E0,9.850634130E0
9.787970250E0,1.085243225E-1,4.686304779E0,8.664881287E0,9.851568287E0
9.797968250E0,1.052311707E-1,4.696333923E0,8.658893738E0,9.851043939E0
9.807966250E0,1.104702759E-1,4.687651978E0,8.670120392E0,9.856838862E0
9.817964250E0,9.684860229E-2,4.670886841E0,8.663085022E0,9.842540608E0
9.827962250E0,9.894424438E-2,4.680167542E0,8.655750275E0,9.840516805E0
9.837960250E0,1.101708984E-1,4.689148865E0,8.668773193E0,9.856362584E0
9.847957250E0,1.083746338E-1,4.697232056E0,8.664432220E0,9.856374574E0
9.857955250E0,1.043330383E-1,4.684358826E0,8.673563232E0,9.858235245E0
9.867953250E0,1.058299255E-1,4.694238281E0,8.659941559E0,9.850972582E0
9.877950250E0,1.017883301E-1,4.686155090E0,8.656049652E0,9.843658160E0
9.887948250E0,9.849517822E-2,4.686454468E0,8.658145294E0,9.845610022E0
9.897946250E0,1.026864624E-1,4.679119720E0,8.659492493E0,9.843348825E0
9.907945250E0,1.040336609E-1,4.686005402E0,8.667875061E0,9.854010742E0
9.917943250E0,1.106199646E-1,4.679718475E0,8.667425995E0,9.850699222E0
9.927941250E0,1.082249451E-1,4.687651978E0,8.656199341E0,9.844571130E0
9.937939250E0,1.062789917E-1,4.699477386E0,8.670419769E0,9.862685329E0
9.947936250E0,1.019380188E-1,4.684508514E0,8.667725372E0,9.853145412E0
9.957934250E0,1.082249451E-1,4.695735168E0,8.656798096E0,9.848948912E0
9.967932250E0,1.058299255E-1,4.684957581E0,8.658145294E0,9.844973715E0
9.977929250E0,1.014889526E-1,4.692741394E0,8.663683777E0,9.853503863E0
9.987927250E0,9.520202637E-2,4.691693573E0,8.673413544E0,9.861498593E0
9.997925250E0,1.032852173E-1,4.689597931E0,8.668773193E0,9.856501675E0
1.000792325E1,1.002914429E-1,4.688699799E0,8.665929108E0,9.853542078E0
1.001792125E1,1.010398865E-1,4.686753845E0,8.667276306E0,9.853808869E0
1.002792025E1,9.789642334E-2,4.688101044E0,8.665330353E0,9.852706493E0
1.003791825E1,1.010398865E-1,4.687352600E0,8.663983154E0,9.851197265E0
1.004791725E1,1.031355286E-1,4.691394196E0,8.661139069E0,9.850641928E0
1.005791525E1,9.924362183E-2,4.682861938E0,8.660091248E0,9.845619617E0
1.006791425E1,1.047821045E-1,4.681215363E0,8.665180664E0,9.849371173E0
1.007791325E1,9.894424438E-2,4.689448242E0,8.665629730E0,9.853621334E0
1.008791225E1,1.004411316E-1,4.681814117E0,8.665779419E0,9.850137298E0
1.009791125E1,1.055305481E-1,4.676874390E0,8.652756500E0,9.836385810E0
1.010791025E1,9.894424438E-2,4.685855713E0,8.663384399E0,9.849937207E0
1.011790925E1,1.074765015E-1,4.693190460E0,8.663833466E0,9.853912838E0
1.012790825E1,1.011895752E-1,4.691394196E0,8.676107941E0,9.863785674E0
1.013790525E1,1.029858398E-1,4.681365051E0,8.669222260E0,9.852979215E0
1.014790425E1,1.082249451E-1,4.682562561E0,8.666378174E0,9.851102244E0
1.015790225E1,1.038839722E-1,4.679868164E0,8.674161987E0,9.856624376E0
1.016790125E1,9.894424438E-2,4.680915985E0,8.668324127E0,9.851934206E0
1.017790025E1,1.073268127E-1,4.681365051E0,8.662785645E0,9.847362739E0
1.018789825E1,1.034349060E-1,4.682263184E0,8.663683777E0,9.848538160E0
1.019789725E1,9.729766846E-2,4.684059448E0,8.672964478E0,9.857494234E0
1.020789625E1,1.056802368E-1,4.687651978E0,8.669371948E0,9.856128010E0
1.021789325E1,1.035845947E-1,4.684508514E0,8.657696228E0,9.844341205E0
1.022789125E1,9.580078125E-2,4.687951355E0,8.664282532E0,9.851693128E0
1.023788825E1,1.053808594E-1,4.680167542E0,8.661737823E0,9.845850672E0
1.024788625E1,1.073268127E-1,4.689597931E0,8.664731598E0,9.852990483E0
1.025788425E1,1.062789917E-1,4.686304779E0,8.659342804E0,9.846672814E0
1.026788325E1,9.849517822E-2,4.683610382E0,8.665629730E0,9.850839869E0
1.027788125E1,9.250762939E-2,4.677772522E0,8.669821014E0,9.851695786E0
1.028788025E1,1.074765015E-1,4.682562561E0,8.669671326E0,9.853991284E0
1.029787725E1,1.010398865E-1,4.681065674E0,8.666827240E0,9.850709584E0
1.030787625E1,1.044827271E-1,4.684059448E0,8.661588135E0,9.847560031E0
1.031787425E1,1.083746338E-1,4.687502289E0,8.663683777E0,9.851083156E0
1.032787325E1,1.064286804E-1,4.682113495E0,8.658145294E0,9.843627064E0
1.033787125E1,9.954299927E-2,4.684658203E0,8.664132843E0,9.850031940E0
1.034786925E1,9.999206543E-2,4.692142639E0,8.657396851E0,9.847675928E0
1.035786825E1,1.050814819E-1,4.686005402E0,8.670120392E0,9.855996974E0
1.036786625E1,1.074765015E-1,4.688250732E0,8.666976929E0,9.854325711E0
1.037786525E1,9.879455566E-2,4.684807892E0,8.661737823E0,9.847989006E0
1.038786425E1,1.023870850E-1,4.682562561E0,8.659342804E0,9.844851093E0
1.039786225E1,1.061293030E-1,4.689597931E0,8.663234711E0,9.851661171E0
1.040785925E1,1.095721436E-1,4.682263184E0,8.665779419E0,9.850448087E0
1.041785725E1,1.001417542E-1,4.689148865E0,8.661737823E0,9.850068404E0
1.042785625E1,1.076261902E-1,4.681514740E0,8.666677551E0,9.850861050E0
1.043785425E1,1.106199646E-1,4.688849487E0,8.675060120E0,9.861755136E0
1.044785225E1,9.639953613E-2,4.688550110E0,8.667126617E0,9.854485213E0
1.045785125E1,9.250762939E-2,4.686005402E0,8.662037201E0,9.848760976E0
1.046784925E1,9.774673462E-2,4.686454468E0,8.651409302E0,9.839679507E0
1.047784725E1,1.040336609E-1,4.685706024E0,8.657845917E0,9.845047479E0
1.048784625E1,1.014889526E-1,4.693789215E0,8.658594360E0,9.849528593E0
1.049784525E1,1.076261902E-1,4.695286102E0,8.664581909E0,9.855570741E0
1.050784225E1,1.038839722E-1,4.684209137E0,8.674161987E0,9.858686185E0
1.051784025E1,1.037342834E-1,4.680616608E0,8.665929108E0,9.849734003E0
1.052783925E1,1.007405090E-1,4.688999176E0,8.660989380E0,9.849345103E0
1.053783725E1,1.020877075E-1,4.686005402E0,8.664282532E0,9.850830438E0
1.054783525E1,1.008901978E-1,4.686155090E0,8.666827240E0,9.853127563E0
1.055783425E1,1.041833496E-1,4.682712250E0,8.666677551E0,9.851393199E0
1.056783325E1,1.059796143E-1,4.689597931E0,8.651708679E0,9.841525466E0
1.057783025E1,1.073268127E-1,4.693340149E0,8.665480042E0,9.855430237E0
1.058782925E1,9.924362183E-2,4.686604156E0,8.664731598E0,9.851481182E0
1.059782725E1,1.011895752E-1,4.684957581E0,8.663983154E0,9.850059439E0
1.060782525E1,1.004411316E-1,4.686304779E0,8.673862610E0,9.859383017E0
1.061782425E1,1.004411316E-1,4.682263184E0,8.674012299E0,9.857594346E0
1.062782225E1,9.834548950E-2,4.687651978E0,8.660540314E0,9.848284694E0
1.063782025E1,9.819580078E-2,4.700525208E0,8.659492493E0,9.853496327E0
1.064781925E1,9.969268799E-2,4.686903534E0,8.661288757E0,9.848600221E0
1.065781725E1,1.004411316E-1,4.691992950E0,8.656049652E0,9.846424826E0
1.066781525E1,9.879455566E-2,4.682562561E0,8.654552765E0,9.840601408E0
1.067781425E1,1.035845947E-1,4.681963806E0,8.653654633E0,9.839575872E0
1.068781325E1,1.086740112E-1,4.687053223E0,8.668174438E0,9.854822477E0
1.069781125E1,9.729766846E-2,4.690046997E0,8.657696228E0,9.846913813E0
1.070780925E1,1.064286804E-1,4.688101044E0,8.663384399E0,9.851083581E0
1.071780825E1,1.073268127E-1,4.691543884E0,8.666078796E0,9.855101459E0
1.072780625E1,1.062789917E-1,4.694238281E0,8.671617279E0,9.861243050E0
1.073780425E1,1.133143616E-1,4.684209137E0,8.670569458E0,9.855629361E0
1.074780225E1,1.062789917E-1,4.686005402E0,8.654552765E0,9.842318091E0
1.075780025E1,1.079255676E-1,4.685855713E0,8.660540314E0,9.847530158E0
1.076779825E1,1.101708984E-1,4.677622833E0,8.659043427E0,9.842323204E0
1.077779525E1,9.969268799E-2,4.686604156E0,8.657696228E0,9.845298428E0
1.078779288E1,1.038839722E-1,4.681514740E0,8.671617279E0,9.855167090E0
1.079779088E1,1.104702759E-1,4.678520966E0,8.668773193E0,9.851314165E0
1.080778988E1,1.028361511E-1,4.683760071E0,8.656049652E0,9.842529109E0
1.081778787E1,1.023870850E-1,4.685107269E0,8.671168213E0,9.856463434E0
1.082778688E1,9.580078125E-2,4.693789215E0,8.659791870E0,9.850524363E0
1.083778388E1,1.059796143E-1,4.684957581E0,8.663234711E0,9.849451501E0
1.084778188E1,9.984237671E-2,4.688999176E0,8.657845917E0,9.846571875E0
1.085777988E1,1.073268127E-1,4.692741394E0,8.657696228E0,9.848301621E0
1.086777688E1,1.011895752E-1,4.691394196E0,8.660540314E0,9.850095297E0
1.087777388E1,1.029858398E-1,4.681365051E0,8.662785645E0,9.847316383E0
1.088777088E1,1.016386414E-1,4.681514740E0,8.670120392E0,9.853826581E0
1.089776888E1,1.059796143E-1,4.683011627E0,8.659642181E0,9.845366031E0
1.090776588E1,1.017883301E-1,4.691394196E0,8.660390625E0,9.849969855E0
1.091776388E1,1.044827271E-1,4.687053223E0,8.662635956E0,9.849905901E0
1.092776188E1,1.079255676E-1,4.688550110E0,8.660091248E0,9.848417664E0
1.093775987E1,1.035845947E-1,4.680766296E0,8.663384399E0,9.847564782E0
1.094775788E1,9.265731812E-2,4.681963806E0,8.660390625E0,9.845391624E0
1.095775588E1,1.041833496E-1,4.680317230E0,8.663384399E0,9.847357656E0
1.096775388E1,1.065783691E-1,4.684209137E0,8.665180664E0,9.850813678E0
1.097775188E1,1.052311707E-1,4.687202911E0,8.663683777E0,9.850906624E0
1.098774987E1,1.008901978E-1,4.679568787E0,8.661139069E0,9.844992272E0
1.099774788E1,9.894424438E-2,4.688849487E0,8.660690002E0,9.848992375E0
1.100774488E1,1.011895752E-1,4.687202911E0,8.662037201E0,9.849416172E0
1.101774188E1,1.002914429E-1,4.683909760E0,8.670419769E0,9.855214254E0
1.102773888E1,9.714797974E-2,4.687801666E0,8.671018524E0,9.857559761E0
1.103773688E1,1.005908203E-1,4.680317230E0,8.663234711E0,9.847188611E0
1.104773487E1,1.002914429E-1,4.679419098E0,8.667875061E0,9.850841565E0
1.105773288E1,1.028361511E-1,4.683760071E0,8.670120392E0,9.854905950E0
1.106773088E1,1.067280579E-1,4.699776764E0,8.653504944E0,9.847966304E0
1.107772888E1,1.065783691E-1,4.690645752E0,8.660540314E0,9.849795685E0
1.108772688E1,1.061293030E-1,4.675676880E0,8.659193115E0,9.841485819E0
1.109772487E1,1.016386414E-1,4.690945129E0,8.653954010E0,9.844095521E0
1.110772288E1,1.031355286E-1,4.703968048E0,8.671766968E0,9.865976621E0
1.111772188E1,9.295669556E-2,4.689597931E0,8.674012299E0,9.861007000E0
1.112771988E1,9.415420532E-2,4.686903534E0,8.667126617E0,9.853680204E0
1.113771688E1,1.067280579E-1,4.691693573E0,8.664432220E0,9.853718342E0
1.114771388E1,1.064286804E-1,4.688550110E0,8.666827240E0,9.854325122E0
1.115771187E1,9.639953613E-2,4.689148865E0,8.664881287E0,9.852795424E0
1.116770888E1,9.550140381E-2,4.685107269E0,8.663983154E0,9.850073844E0
1.117770688E1,1.097218323E-1,4.679119720E0,8.661288757E0,9.845004986E0
1.118770388E1,1.077758789E-1,4.684957581E0,8.663234711E0,9.849470992E0
1.119770188E1,1.001417542E-1,4.681065674E0,8.657546539E0,9.842536070E0
1.120769987E1,1.073268127E-1,4.679868164E0,8.654552765E0,9.839408958E0
1.121769788E1,1.008901978E-1,4.684209137E0,8.660839691E0,9.846935474E0
1.122769588E1,1.080752563E-1,4.684508514E0,8.658893738E0,9.845442654E0
1.123769388E1,1.025367737E-1,4.688101044E0,8.649463348E0,9.838801828E0
1.124769188E1,1.013392639E-1,4.688250732E0,8.666976929E0,9.854260686E0
1.125768988E1,1.080752563E-1,4.687502289E0,8.663384399E0,9.850816576E0
1.126768887E1,1.029858398E-1,4.689148865E0,8.662186890E0,9.850492621E0
1.127768688E1,1.014889526E-1,4.683161316E0,8.670270081E0,9.854739123E0
1.128768588E1,1.064286804E-1,4.681215363E0,8.665779419E0,9.849915597E0
1.129768488E1,1.002914429E-1,4.682263184E0,8.659791870E0,9.845082129E0
1.130768288E1,1.046324158E-1,4.686454468E0,8.655899963E0,9.843698878E0
1.131768188E1,1.068777466E-1,4.684658203E0,8.651409302E0,9.838919058E0
1.132767988E1,1.088237000E-1,4.684358826E0,8.657396851E0,9.844063208E0
1.133767888E1,1.089733887E-1,4.687801666E0,8.667875061E0,9.854918454E0
1.134767688E1,1.122665405E-1,4.687951355E0,8.666228485E0,9.853578428E0
1.135767488E1,1.037342834E-1,4.689747620E0,8.660690002E0,9.849469268E0
1.136767388E1,1.100212097E-1,4.690346375E0,8.658444672E0,9.847848390E0
1.137767288E1,1.025367737E-1,4.685706024E0,8.664282532E0,9.850692693E0
1.138767188E1,1.004411316E-1,4.686304779E0,8.682095490E0,9.866626728E0
1.139766988E1,1.062789917E-1,4.677173767E0,8.662635956E0,9.845227848E0
1.140766888E1,1.061293030E-1,4.682712250E0,8.660690002E0,9.846146899E0
1.141766688E1,1.008901978E-1,4.689747620E0,8.659642181E0,9.848518380E0
1.142766488E1,1.100212097E-1,4.687352600E0,8.669072571E0,9.855769798E0
1.143766388E1,1.095721436E-1,4.693040771E0,8.666228485E0,9.855970469E0
1.144766287E1,1.140628052E-1,4.683610382E0,8.662336578E0,9.848111064E0
1.145766088E1,1.025367737E-1,4.684508514E0,8.660839691E0,9.847094900E0
1.146765988E1,1.001417542E-1,4.689747620E0,8.665480042E0,9.853644273E0
1.147765788E1,1.124162292E-1,4.688250732E0,8.665629730E0,9.853195977E0
1.148765588E1,1.095721436E-1,4.677473145E0,8.655899963E0,9.839479928E0
1.149765288E1,1.016386414E-1,4.679718475E0,8.671467590E0,9.854158797E0
1.150765088E1,1.040336609E-1,4.690645752E0,8.655899963E0,9.845688638E0
1.151764988E1,1.035845947E-1,4.694238281E0,8.660390625E0,9.851343491E0
1.152764788E1,1.022373962E-1,4.685107269E0,8.664881287E0,9.850931444E0
1.153764488E1,1.089733887E-1,4.678520966E0,8.670270081E0,9.852614724E0
1.154764288E1,1.013392639E-1,4.686903534E0,8.660390625E0,9.847827180E0
1.155763987E1,1.005908203E-1,4.683161316E0,8.669371948E0,9.853939740E0
1.156763687E1,9.834548950E-2,4.693040771E0,8.662785645E0,9.852824907E0
1.157763488E1,8.726852417E-2,4.682412872E0,8.665180664E0,9.849769644E0
1.158763388E1,1.007405090E-1,4.690346375E0,8.651259613E0,9.841432348E0
1.159763088E1,1.068777466E-1,4.684658203E0,8.669371948E0,9.854717414E0
1.160762988E1,1.059796143E-1,4.682712250E0,8.659043427E0,9.844696986E0
1.161762687E1,1.025367737E-1,4.682562561E0,8.661737823E0,9.846959330E0
1.162762588E1,9.804611206E-2,4.685556335E0,8.666527863E0,9.852550756E0
1.163762288E1,1.029858398E-1,4.678371277E0,8.663234711E0,9.846288618E0
1.164762088E1,9.954299927E-2,4.688250732E0,8.664432220E0,9.852004336E0
1.165761788E1,9.894424438E-2,4.683610382E0,8.666228485E0,9.851371089E0
1.166761488E1,1.023870850E-1,4.690645752E0,8.661139069E0,9.850277694E0
1.167761288E1,1.032852173E-1,4.692142639E0,8.673263855E0,9.861661943E0
1.168760988E1,1.043330383E-1,4.686753845E0,8.652606812E0,9.840942619E0
1.169760788E1,1.058299255E-1,4.678520966E0,8.664282532E0,9.847311825E0
1.170760488E1,9.894424438E-2,4.682263184E0,8.675658875E0,9.859028116E0
1.171760288E1,1.056802368E-1,4.691843262E0,8.663384399E0,9.852856984E0
1.172759988E1,1.023870850E-1,4.686155090E0,8.657097473E0,9.844585786E0
1.173759788E1,1.028361511E-1,4.685406647E0,8.661139069E0,9.847788619E0
1.174759488E1,1.086740112E-1,4.678820343E0,8.664432220E0,9.847616744E0
1.175759188E1,1.064286804E-1,4.688699799E0,8.668473816E0,9.855844518E0
1.176758988E1,9.909393311E-2,4.681215363E0,8.669521637E0,9.853131598E0
1.177758888E1,1.011895752E-1,4.682861938E0,8.662785645E0,9.848009463E0
1.178758588E1,1.088237000E-1,4.685855713E0,8.655899963E0,9.843459277E0
1.179758467E1,1.025367737E-1,4.682562561E0,8.655899963E0,9.841824531E0
1.180758267E1,1.058299255E-1,4.687502289E0,8.660690002E0,9.848422666E0
1.181758067E1,1.011895752E-1,4.683610382E0,8.663683777E0,9.849155402E0
1.182757867E1,1.098715210E-1,4.685256958E0,8.665779419E0,9.851874819E0
1.183757667E1,1.071771240E-1,4.690346375E0,8.667875061E0,9.856109482E0
1.184757367E1,1.083746338E-1,4.685556335E0,8.663833466E0,9.850289009E0
1.185757067E1,1.032852173E-1,4.683460693E0,8.661588135E0,9.847262610E0
1.186756767E1,1.076261902E-1,4.687053223E0,8.659342804E0,9.847043673E0
1.187756567E1,1.004411316E-1,4.694986725E0,8.665330353E0,9.856010293E0
1.188756367E1,1.067280579E-1,4.687352600E0,8.669521637E0,9.856128585E0
1.189756167E1,1.028361511E-1,4.688999176E0,8.660540314E0,9.848971879E0
1.190756067E1,1.085243225E-1,4.687202911E0,8.669671326E0,9.856208681E0
1.191755867E1,1.044827271E-1,4.683610382E0,8.668922882E0,9.853798597E0
1.192755667E1,1.032852173E-1,4.685406647E0,8.659791870E0,9.846608478E0
1.193755467E1,9.804611206E-2,4.679568787E0,8.658294983E0,9.842461536E0
1.194755167E1,9.999206543E-2,4.683011627E0,8.659342804E0,9.845040077E0
1.195755067E1,1.026864624E-1,4.674629059E0,8.666527863E0,9.847406082E0
1.196754967E1,1.023870850E-1,4.681215363E0,8.670270081E0,9.853823809E0
1.197754767E1,1.044827271E-1,4.688400421E0,8.658893738E0,9.847256263E0
1.198754567E1,1.097218323E-1,4.688550110E0,8.664881287E0,9.852649833E0
1.199754367E1,1.076261902E-1,4.674030304E0,8.669521637E0,9.849809546E0
1.200754167E1,9.909393311E-2,4.684508514E0,8.666976929E0,9.852458004E0
1.201753867E1,1.055305481E-1,4.691094818E0,8.661588135E0,9.850919566E0
1.202753567E1,1.026864624E-1,4.693340149E0,8.666228485E0,9.856038881E0
1.203753367E1,1.100212097E-1,4.687651978E0,8.665330353E0,9.852620761E0
1.204753167E1,1.025367737E-1,4.693938904E0,8.659043427E0,9.850005547E0
1.205752867E1,1.016386414E-1,4.693340149E0,8.666228485E0,9.856028020E0
1.206752667E1,1.013392639E-1,4.688999176E0,8.658444672E0,9.847113641E0
1.207752367E1,9.535171509E-2,4.686753845E0,8.653205566E0,9.841377959E0
1.208752167E1,1.080752563E-1,4.690196686E0,8.660540314E0,9.849598151E0
1.209751967E1,1.052311707E-1,4.681814117E0,8.675359497E0,9.858616507E0
1.210751667E1,9.789642334E-2,4.681664429E0,8.661887512E0,9.846616719E0
1.211751367E1,9.714797974E-2,4.692741394E0,8.662935333E0,9.852802044E0
1.212751167E1,1.064286804E-1,4.684658203E0,8.658145294E0,9.844837707E0
1.213750967E1,1.065783691E-1,4.680167542E0,8.650062103E0,9.835593605E0
1.214750767E1,1.010398865E-1,4.690645752E0,8.672964478E0,9.860663236E0
1.215750467E1,1.047821045E-1,4.690496063E0,8.662635956E0,9.851547813E0
1.216750267E1,1.067280579E-1,4.685107269E0,8.663534088E0,9.849794104E0
1.217749967E1,9.759704590E-2,4.682861938E0,8.668473816E0,9.852977185E0
1.218749767E1,1.026864624E-1,4.691693573E0,8.663384399E0,9.852754049E0
1.219749567E1,1.044827271E-1,4.683909760E0,8.653654633E0,9.840511459E0
1.220749367E1,1.062789917E-1,4.685855713E0,8.664731598E0,9.851198539E0
1.221749067E1,1.064286804E-1,4.684508514E0,8.667875061E0,9.853324574E0
1.222748767E1,1.023870850E-1,4.689897308E0,8.659193115E0,9.848210258E0
1.223748467E1,1.044827271E-1,4.693938904E0,8.654253387E0,9.845815394E0
1.224748067E1,1.001417542E-1,4.687202911E0,8.665180664E0,9.852170088E0
1.225747767E1,9.759704590E-2,4.687502289E0,8.668623505E0,9.855315132E0
1.226747467E1,1.098715210E-1,4.684658203E0,8.668922882E0,9.854355289E0
1.227747267E1,1.119671631E-1,4.684957581E0,8.656648407E0,9.843725200E0
1.228746967E1,1.130149841E-1,4.687502289E0,8.655301208E0,9.843763970E0
1.229746767E1,1.053808594E-1,4.685406647E0,8.660240936E0,9.847025624E0
1.230746367E1,1.034349060E-1,4.687202911E0,8.666677551E0,9.853520675E0
1.231746067E1,1.016386414E-1,4.691394196E0,8.656947784E0,9.846941396E0
1.232745667E1,1.008901978E-1,4.686753845E0,8.665480042E0,9.852227402E0
1.233745367E1,9.160949707E-2,4.690645752E0,8.667725372E0,9.855963322E0
1.234744967E1,1.038839722E-1,4.701722717E0,8.663683777E0,9.857809340E0
1.235744767E1,1.061293030E-1,4.693789215E0,8.657097473E0,9.848261638E0
1.236744467E1,9.774673462E-2,4.691992950E0,8.666378174E0,9.855478828E0
1.237744167E1,1.040336609E-1,4.687651978E0,8.671168213E0,9.857690513E0
1.238743867E1,1.008901978E-1,4.682263184E0,8.673862610E0,9.857467217E0
1.239743567E1,1.089733887E-1,4.686454468E0,8.661737823E0,9.848879774E0
1.240743267E1,1.056802368E-1,4.684807892E0,8.659043427E0,9.845690751E0
1.241742967E1,1.034349060E-1,4.691543884E0,8.659043427E0,9.848873837E0
1.242742767E1,9.804611206E-2,4.689597931E0,8.665480042E0,9.853551956E0
1.243742567E1,1.118174744E-1,4.683460693E0,8.660540314E0,9.846434164E0
1.244742367E1,9.595046997E-2,4.692442017E0,8.663384399E0,9.853042567E0
1.245742067E1,1.064286804E-1,4.682861938E0,8.676257629E0,9.859917315E0
1.246741767E1,1.070274353E-1,4.682712250E0,8.664581909E0,9.849580120E0
1.247741467E1,1.005908203E-1,4.686005402E0,8.666228485E0,9.852526645E0
1.248741167E1,1.086740112E-1,4.683161316E0,8.658444672E0,9.844413344E0
1.249740867E1,1.043330383E-1,4.684508514E0,8.663534088E0,9.849483657E0
1.250740567E1,1.050814819E-1,4.683909760E0,8.659941559E0,9.846046951E0
1.251740267E1,9.684860229E-2,4.682861938E0,8.667875061E0,9.852443030E0
1.252740067E1,1.034349060E-1,4.680317230E0,8.671916656E0,9.854857008E0
1.253739867E1,9.759704590E-2,4.684957581E0,8.662935333E0,9.849101548E0
1.254739667E1,9.595046997E-2,4.688999176E0,8.660839691E0,9.849165646E0
1.255739467E1,9.759704590E-2,4.686454468E0,8.657995605E0,9.845469444E0
1.256739267E1,1.043330383E-1,4.697681122E0,8.666677551E0,9.858518808E0
1.257738967E1,1.002914429E-1,4.686604156E0,8.663085022E0,9.850043604E0
1.258738667E1,1.013392639E-1,4.691094818E0,8.661737823E0,9.851007175E0
1.259738467E1,9.984237671E-2,4.685406647E0,8.664581909E0,9.850785939E0
1.260738267E1,1.014889526E-1,4.680766296E0,8.661438446E0,9.845831051E0
1.261738067E1,1.044827271E-1,4.684658203E0,8.663234711E0,9.849293110E0
1.262737767E1,1.089733887E-1,4.693639526E0,8.662935333E0,9.853353530E0
1.263737467E1,1.034349060E-1,4.694986725E0,8.668473816E0,9.858805071E0
1.264737167E1,1.070274353E-1,4.693789215E0,8.670270081E0,9.859852704E0
1.265736867E1,1.064286804E-1,4.692741394E0,8.660540314E0,9.850792221E0
1.266736567E1,9.684860229E-2,4.688550110E0,8.654852142E0,9.843695820E0
1.267736267E1,1.085243225E-1,4.688101044E0,8.660540314E0,9.848605356E0
1.268735967E1,9.654922485E-2,4.683909760E0,8.658893738E0,9.845037996E0
1.269735667E1,1.056802368E-1,4.683610382E0,8.664731598E0,9.850124273E0
1.270735367E1,1.064286804E-1,4.679868164E0,8.660540314E0,9.844666151E0
1.271735067E1,1.077758789E-1,4.678371277E0,8.663534088E0,9.846603289E0
1.272734767E1,1.071771240E-1,4.690645752E0,8.655301208E0,9.845195961E0
1.273734467E1,1.055305481E-1,4.687053223E0,8.663085022E0,9.850312011E0
1.274734167E1,1.059796143E-1,4.687951355E0,8.653804321E0,9.842583442E0
1.275733967E1,1.023870850E-1,4.695435791E0,8.660540314E0,9.852033237E0
1.276733767E1,1.083746338E-1,4.686604156E0,8.660240936E0,9.847627971E0
1.277733567E1,1.077758789E-1,4.685556335E0,8.661438446E0,9.848175961E0
1.278733267E1,1.124162292E-1,4.680017853E0,8.669970703E0,9.853100857E0
1.279733042E1,1.047821045E-1,4.687053223E0,8.665929108E0,9.852805413E0
1.280732742E1,9.624984741E-2,4.681065674E0,8.663085022E0,9.847369292E0
1.281732442E1,9.235794067E-2,4.683610382E0,8.671467590E0,9.855916313E0
1.282732142E1,1.007405090E-1,4.688999176E0,8.656049652E0,9.845001651E0
1.283731842E1,1.016386414E-1,4.684209137E0,8.658594360E0,9.844968357E0
1.284731642E1,1.016386414E-1,4.687202911E0,8.657845917E0,9.845734989E0
1.285731342E1,1.053808594E-1,4.690945129E0,8.660540314E0,9.849925373E0
1.286731042E1,1.079255676E-1,4.672982483E0,8.671018524E0,9.850633252E0
1.287730842E1,1.047821045E-1,4.678221588E0,8.659342804E0,9.842812317E0
1.288730542E1,1.017883301E-1,4.687202911E0,8.664581909E0,9.851660350E0
1.289730342E1,1.026864624E-1,4.681514740E0,8.660540314E0,9.845409250E0
1.290730042E1,1.064286804E-1,4.681365051E0,8.662785645E0,9.847352991E0
1.291729842E1,1.007405090E-1,4.688849487E0,8.664581909E0,9.852433092E0
1.292729642E1,1.047821045E-1,4.681365051E0,8.665779419E0,9.849969085E0
1.293729442E1,1.011895752E-1,4.687651978E0,8.671168213E0,9.857660908E0
1.294729242E1,9.879455566E-2,4.687202911E0,8.657995605E0,9.845837669E0
1.295729042E1,1.004411316E-1,4.693040771E0,8.648565216E0,9.840345543E0
1.296728742E1,9.250762939E-2,4.692142639E0,8.668922882E0,9.857737273E0
1.297728542E1,9.984237671E-2,4.682263184E0,8.675808563E0,9.859168892E0
1.298728242E1,1.050814819E-1,4.688699799E0,8.654852142E0,9.843851559E0
1.299728042E1,1.137634277E-1,4.680466919E0,8.652606812E0,9.838054550E0
1.300727842E1,1.019380188E-1,4.683760071E0,8.668324127E0,9.853316342E0
1.301727542E1,9.864486694E-2,4.679568787E0,8.669222260E0,9.852081477E0
1.302727342E1,9.804611206E-2,4.685406647E0,8.666228485E0,9.852216230E0
1.303727042E1,1.001417542E-1,4.688999176E0,8.660390625E0,9.848812488E0
1.304726842E1,1.044827271E-1,4.687202911E0,8.644373932E0,9.833920299E0
1.305726542E1,9.954299927E-2,4.681365051E0,8.661139069E0,9.845832495E0
1.306726342E1,1.031355286E-1,4.686903534E0,8.669671326E0,9.856008450E0
1.307726142E1,1.002914429E-1,4.686155090E0,8.671617279E0,9.857335042E0
1.308725942E1,1.020877075E-1,4.690346375E0,8.677006073E0,9.864086648E0
1.309725842E1,1.017883301E-1,4.692891083E0,8.664132843E0,9.853973082E0
1.310725642E1,1.056802368E-1,4.683610382E0,8.661288757E0,9.847095890E0
1.311725442E1,1.103205872E-1,4.688699799E0,8.665330353E0,9.853122680E0
1.312725242E1,1.037342834E-1,4.687502289E0,8.664432220E0,9.851691439E0
1.313725042E1,1.011895752E-1,4.675377502E0,8.662186890E0,9.843925834E0
1.314724842E1,1.007405090E-1,4.687352600E0,8.656049652E0,9.844217522E0
1.315724642E1,9.699829102E-2,4.684059448E0,8.654702454E0,9.841427546E0
1.316724442E1,9.759704590E-2,4.686304779E0,8.660690002E0,9.847767716E0
1.317724242E1,1.080752563E-1,4.696782990E0,8.674311676E0,9.864843322E0
1.318724042E1,1.049317932E-1,4.685706024E0,8.657247162E0,9.844530464E0
1.319723842E1,1.067280579E-1,4.681814117E0,8.661438446E0,9.846384629E0
1.320723742E1,1.043330383E-1,4.690795441E0,8.663683777E0,9.852606956E0
1.321723442E1,1.062789917E-1,4.679119720E0,8.659642181E0,9.843518644E0
1.322723242E1,1.017883301E-1,4.680317230E0,8.663534088E0,9.847464300E0
1.323722942E1,1.043330383E-1,4.688101044E0,8.658594360E0,9.846848891E0
1.324722542E1,1.034349060E-1,4.685406647E0,8.656049652E0,9.843319044E0
1.325722342E1,1.005908203E-1,4.689747620E0,8.665629730E0,9.853780486E0
1.326722142E1,9.909393311E-2,4.687502289E0,8.669072571E0,9.855725065E0
1.327721942E1,1.043330383E-1,4.693190460E0,8.661438446E0,9.851773345E0
1.328721742E1,1.058299255E-1,4.689897308E0,8.661438446E0,9.850220946E0
1.329721642E1,9.355545044E-2,4.687202911E0,8.666677551E0,9.853421920E0
1.330721542E1,1.068777466E-1,4.685107269E0,8.662037201E0,9.848479144E0
1.331721442E1,1.157093811E-1,4.692142639E0,8.667425995E0,9.856665997E0
1.332721342E1,1.074765015E-1,4.688101044E0,8.663384399E0,9.851094957E0
1.333721142E1,1.049317932E-1,4.684658203E0,8.664282532E0,9.850219538E0
1.334721042E1,1.043330383E-1,4.687502289E0,8.661139069E0,9.848801605E0
1.335720942E1,1.055305481E-1,4.690945129E0,8.661438446E0,9.850716667E0
1.336720642E1,1.103205872E-1,4.682861938E0,8.667126617E0,9.851926226E0
1.337720442E1,1.082249451E-1,4.693190460E0,8.667276306E0,9.856948204E0
1.338720342E1,1.026864624E-1,4.691693573E0,8.668623505E0,9.857361034E0
1.339720142E1,9.729766846E-2,4.698878632E0,8.654103699E0,9.847966189E0
1.340720042E1,9.864486694E-2,4.692442017E0,8.661588135E0,9.851489832E0
1.341719942E1,1.067280579E-1,4.690645752E0,8.658145294E0,9.847691526E0
1.342719742E1,1.028361511E-1,4.681664429E0,8.660240936E0,9.845218645E0
1.343719442E1,9.999206543E-2,4.692142639E0,8.669970703E0,9.858731813E0
1.344719242E1,9.999206543E-2,4.686005402E0,8.669371948E0,9.855285638E0
1.345719042E1,1.074765015E-1,4.683460693E0,8.667126617E0,9.852179407E0
1.346718842E1,1.106199646E-1,4.682113495E0,8.663234711E0,9.848150040E0
1.347718642E1,1.082249451E-1,4.685556335E0,8.659791870E0,9.846732760E0
1.348718442E1,1.061293030E-1,4.688999176E0,8.658145294E0,9.846900865E0
1.349718242E1,9.849517822E-2,4.687202911E0,8.661288757E0,9.848730648E0
1.350718042E1,9.684860229E-2,4.687801666E0,8.672814789E0,9.859136903E0
1.351717842E1,9.909393311E-2,4.683610382E0,8.674311676E0,9.858484106E0
1.352717642E1,1.031355286E-1,4.690945129E0,8.661139069E0,9.850428067E0
1.353717442E1,1.034349060E-1,4.686454468E0,8.667575684E0,9.853954662E0
1.354717342E1,1.064286804E-1,4.690795441E0,8.669821014E0,9.858026443E0
1.355717242E1,1.056802368E-1,4.689148865E0,8.666976929E0,9.854733607E0
1.356717042E1,1.034349060E-1,4.684209137E0,8.653205566E0,9.840247994E0
1.357716842E1,1.022373962E-1,4.687502289E0,8.665779419E0,9.852860657E0
1.358716742E1,9.939331055E-2,4.695735168E0,8.663833466E0,9.855040239E0
1.359716642E1,9.894424438E-2,4.684358826E0,8.664581909E0,9.850278536E0
1.360716542E1,1.058299255E-1,4.681514740E0,8.659342804E0,9.844389165E0
1.361716442E1,1.031355286E-1,4.688849487E0,8.668174438E0,9.855617411E0
1.362716342E1,9.939331055E-2,4.691394196E0,8.665629730E0,9.854552103E0
1.363716242E1,9.774673462E-2,4.686753845E0,8.663683777E0,9.850615850E0
1.364716042E1,1.034349060E-1,4.683311005E0,8.661737823E0,9.847324655E0
1.365715942E1,1.056802368E-1,4.684059448E0,8.667276306E0,9.852576302E0
1.366715742E1,1.037342834E-1,4.686304779E0,8.655450897E0,9.843223228E0
1.367715642E1,9.430389404E-2,4.683311005E0,8.665629730E0,9.850656517E0
1.368715442E1,1.043330383E-1,4.693040771E0,8.647816772E0,9.839728248E0
1.369715242E1,1.001417542E-1,4.686005402E0,8.664132843E0,9.850678805E0
1.370715042E1,1.052311707E-1,4.679868164E0,8.662635956E0,9.846496907E0
1.371714942E1,1.107696533E-1,4.688999176E0,8.654702454E0,9.843924916E0
1.372714742E1,9.654922485E-2,4.686454468E0,8.668174438E0,9.854411465E0
1.373714442E1,9.924362183E-2,4.699028320E0,8.669521637E0,9.861608483E0
1.374714242E1,1.028361511E-1,4.687053223E0,8.672066345E0,9.858183295E0
1.375714042E1,1.067280579E-1,4.681664429E0,8.667126617E0,9.851317501E0
1.376713842E1,9.430389404E-2,4.676575012E0,8.656798096E0,9.839684972E0
1.377713642E1,9.505233765E-2,4.691094818E0,8.660240936E0,9.849628349E0
1.378713542E1,1.097218323E-1,4.688400421E0,8.661737823E0,9.849814187E0
1.379713279E1,1.065783691E-1,4.677622833E0,8.664432220E0,9.847024933E0
1.380713079E1,9.580078125E-2,4.677024078E0,8.675658875E0,9.856509977E0
1.381712779E1,9.235794067E-2,4.683161316E0,8.661588135E0,9.847011674E0
1.382712579E1,1.059796143E-1,4.688400421E0,8.662785645E0,9.850694661E0
1.383712379E1,1.026864624E-1,4.677622833E0,8.668623505E0,9.850671720E0
1.384712179E1,9.759704590E-2,4.684508514E0,8.665629730E0,9.851257982E0
1.385711879E1,9.639953613E-2,4.684059448E0,8.665929108E0,9.851296010E0
1.386711679E1,1.035845947E-1,4.694837036E0,8.666378174E0,9.856892777E0
1.387711479E1,1.032852173E-1,4.693190460E0,8.666827240E0,9.856500339E0
1.388711179E1,1.028361511E-1,4.687801666E0,8.658893738E0,9.846953869E0
1.389710879E1,1.028361511E-1,4.689897308E0,8.663833466E0,9.852295284E0
1.390710579E1,9.804611206E-2,4.679718475E0,8.661737823E0,9.845561445E0
1.391710379E1,9.909393311E-2,4.689148865E0,8.657845917E0,9.846635598E0
1.392710179E1,1.041833496E-1,4.696932678E0,8.664282532E0,9.856055121E0
1.393709979E1,1.023870850E-1,4.687352600E0,8.680748291E0,9.865959072E0
1.394709779E1,1.085243225E-1,4.677173767E0,8.657396851E0,9.840642876E0
1.395709579E1,9.984237671E-2,4.679868164E0,8.649463348E0,9.834853875E0
1.396709379E1,9.849517822E-2,4.689597931E0,8.667575684E0,9.855399448E0
1.397709179E1,1.044827271E-1,4.690645752E0,8.668174438E0,9.856486306E0
1.398708979E1,9.699829102E-2,4.694238281E0,8.663384399E0,9.853908410E0
1.399708679E1,9.714797974E-2,4.687951355E0,8.663384399E0,9.850916449E0
1.400708479E1,1.026864624E-1,4.692442017E0,8.659043427E0,9.849293866E0
1.401708279E1,1.053808594E-1,4.681664429E0,8.652307434E0,9.838267677E0
1.402708079E1,9.954299927E-2,4.684807892E0,8.671018524E0,9.856160309E0
1.403707879E1,1.020877075E-1,4.687053223E0,8.673263855E0,9.859228961E0
1.404707679E1,1.128652954E-1,4.692142639E0,8.657546539E0,9.847946649E0
1.405707579E1,1.133143616E-1,4.681664429E0,8.660989380E0,9.845992028E0
1.406707379E1,1.079255676E-1,4.687502289E0,8.663234711E0,9.850683290E0
1.407707279E1,1.101708984E-1,4.687352600E0,8.663085022E0,9.850505272E0
1.408707079E1,1.040336609E-1,4.685406647E0,8.660390625E0,9.847142947E0
1.409706979E1,1.050814819E-1,4.680616608E0,8.666827240E0,9.850538480E0
1.410706779E1,1.026864624E-1,4.687951355E0,8.667575684E0,9.854658830E0
1.411706579E1,1.031355286E-1,4.685107269E0,8.664881287E0,9.850940807E0
1.412706379E1,1.083746338E-1,4.684658203E0,8.673263855E0,9.858157710E0
1.413706179E1,1.050814819E-1,4.693040771E0,8.679251404E0,9.867374460E0
1.414705979E1,9.565109253E-2,4.686005402E0,8.663683777E0,9.850239202E0
1.415705779E1,9.699829102E-2,4.684059448E0,8.663683777E0,9.849326788E0
1.416705479E1,1.070274353E-1,4.688101044E0,8.669222260E0,9.856224473E0
1.417705279E1,9.385482788E-2,4.684957581E0,8.667126617E0,9.852751903E0
1.418705079E1,1.014889526E-1,4.689897308E0,8.652307434E0,9.842147159E0
1.419704779E1,1.074765015E-1,4.690046997E0,8.666228485E0,9.854522220E0
1.420704479E1,9.610015869E-2,4.678820343E0,8.676257629E0,9.857892345E0
1.421704179E1,1.019380188E-1,4.674629059E0,8.668024750E0,9.848715716E0
1.422703979E1,1.058299255E-1,4.689448242E0,8.664132843E0,9.852376501E0
1.423703579E1,9.744735718E-2,4.684059448E0,8.665330353E0,9.850779615E0
1.424703279E1,1.104702759E-1,4.683311005E0,8.660091248E0,9.845952776E0
1.425702979E1,1.055305481E-1,4.680017853E0,8.660690002E0,9.844859324E0
1.426702679E1,1.133143616E-1,4.681514740E0,8.673862610E0,9.857246724E0
1.427702379E1,1.085243225E-1,4.678670654E0,8.661139069E0,9.844646595E0
1.428702079E1,1.032852173E-1,4.687502289E0,8.664282532E0,9.851555072E0
1.429701779E1,1.077758789E-1,4.689298553E0,8.664881287E0,9.852984536E0
1.430701579E1,1.047821045E-1,4.691094818E0,8.656199341E0,9.846173719E0
1.431701279E1,9.909393311E-2,4.681514740E0,8.659941559E0,9.844845741E0
1.432700979E1,1.118174744E-1,4.679868164E0,8.664581909E0,9.848281517E0
1.433700779E1,1.098715210E-1,4.684807892E0,8.664881287E0,9.850871253E0
1.434700579E1,9.864486694E-2,4.691843262E0,8.661737823E0,9.851336261E0
1.435700379E1,1.028361511E-1,4.694986725E0,8.661737823E0,9.852876623E0
1.436700179E1,1.046324158E-1,4.692741394E0,8.660989380E0,9.851167787E0
1.437699979E1,1.004411316E-1,4.684508514E0,8.662037201E0,9.848126569E0
1.438699879E1,1.013392639E-1,4.685107269E0,8.669521637E0,9.855004068E0
1.439699579E1,1.044827271E-1,4.683610382E0,8.667575684E0,9.852613414E0
1.440699279E1,1.070274353E-1,4.683161316E0,8.677305450E0,9.860988017E0
1.441698979E1,1.032852173E-1,4.677173767E0,8.664282532E0,9.846644813E0
1.442698779E1,1.085243225E-1,4.685706024E0,8.665779419E0,9.852073457E0
1.443698479E1,1.106199646E-1,4.683460693E0,8.665779419E0,9.851029072E0
1.444698179E1,1.095721436E-1,4.691394196E0,8.665929108E0,9.854923280E0
1.445697879E1,1.094224548E-1,4.691992950E0,8.656199341E0,9.846652129E0
1.446697579E1,1.070274353E-1,4.679568787E0,8.656798096E0,9.841238345E0
1.447697279E1,1.011895752E-1,4.686604156E0,8.678053894E0,9.863220429E0
1.448696979E1,9.909393311E-2,4.691843262E0,8.672365723E0,9.860686590E0
1.449696679E1,9.729766846E-2,4.685256958E0,8.662785645E0,9.849109336E0
1.450696379E1,1.052311707E-1,4.695585480E0,8.658145294E0,9.850029266E0
1.451696079E1,1.059796143E-1,4.683909760E0,8.659043427E0,9.845266648E0
1.452695679E1,1.049317932E-1,4.684957581E0,8.659043427E0,9.845753972E0
1.453695379E1,1.049317932E-1,4.687352600E0,8.665480042E0,9.852554462E0
1.454695079E1,9.535171509E-2,4.680915985E0,8.671168213E0,9.854401280E0
1.455694879E1,9.370513916E-2,4.687801666E0,8.648565216E0,9.837781529E0
1.456694579E1,1.016386414E-1,4.682861938E0,8.655600586E0,9.841694359E0
1.457694379E1,1.053808594E-1,4.686454468E0,8.677455139E0,9.862666389E0
1.458694079E1,1.032852173E-1,4.693190460E0,8.654403076E0,9.845577542E0
1.459693779E1,1.002914429E-1,4.689448242E0,8.665929108E0,9.853898238E0
1.460693579E1,1.076261902E-1,4.690645752E0,8.656798096E0,9.846516858E0
1.461693379E1,9.550140381E-2,4.691543884E0,8.651858368E0,9.842477216E0
1.462693279E1,9.610015869E-2,4.694537659E0,8.668773193E0,9.858780236E0
1.463692979E1,9.714797974E-2,4.690496063E0,8.663234711E0,9.851996077E0
1.464692779E1,9.954299927E-2,4.692292328E0,8.659941559E0,9.849979893E0
1.465692579E1,1.052311707E-1,4.688101044E0,8.667725372E0,9.854888539E0
1.466692279E1,9.969268799E-2,4.687801666E0,8.671018524E0,9.857585168E0
1.467692079E1,1.011895752E-1,4.684658203E0,8.656648407E0,9.843466028E0
1.468691779E1,1.074765015E-1,4.683161316E0,8.669671326E0,9.854275823E0
1.469691479E1,1.065783691E-1,4.681365051E0,8.670719147E0,9.854334489E0
1.470691179E1,1.070274353E-1,4.679419098E0,8.660390625E0,9.844327491E0
1.471690879E1,1.014889526E-1,4.688849487E0,8.652307434E0,9.841647903E0
1.472690679E1,1.026864624E-1,4.696932678E0,8.659791870E0,9.852091977E0
1.473690379E1,9.849517822E-2,4.685256958E0,8.664581909E0,9.850701179E0
1.474690179E1,9.759704590E-2,4.681215363E0,8.662037201E0,9.846531924E0
1.475689979E1,1.065783691E-1,4.685256958E0,8.662785645E0,9.849205391E0
1.476689779E1,1.073268127E-1,4.683760071E0,8.669222260E0,9.854163690E0
1.477689479E1,1.016386414E-1,4.681664429E0,8.661737823E0,9.846522958E0
1.478689279E1,1.070274353E-1,4.688699799E0,8.662037201E0,9.850190310E0
1.479689129E1,1.086740112E-1,4.688550110E0,8.650361481E0,9.839871235E0
1.480688829E1,1.076261902E-1,4.684957581E0,8.663384399E0,9.849601016E0
1.481688629E1,9.999206543E-2,4.685855713E0,8.667425995E0,9.853502705E0
1.482688329E1,1.011895752E-1,4.681814117E0,8.659941559E0,9.845009424E0
1.483688129E1,1.032852173E-1,4.686753845E0,8.661588135E0,9.848829294E0
1.484687829E1,1.101708984E-1,4.682263184E0,8.679550781E0,9.862572074E0
1.485687629E1,1.041833496E-1,4.691244507E0,8.665779419E0,9.854661949E0
1.486687429E1,9.999206543E-2,4.689597931E0,8.666228485E0,9.854229717E0
1.487687229E1,1.020877075E-1,4.686155090E0,8.676257629E0,9.861435894E0
1.488686929E1,1.104702759E-1,4.671485596E0,8.654403076E0,9.835327852E0
1.489686829E1,9.894424438E-2,4.692442017E0,8.662486267E0,9.852282495E0
1.490686629E1,9.235794067E-2,4.681814117E0,8.673114166E0,9.856511693E0
1.491686329E1,1.082249451E-1,4.687651978E0,8.673114166E0,9.859447400E0
1.492686129E1,9.984237671E-2,4.686304779E0,8.666527863E0,9.852924752E0
1.493685829E1,9.340576172E-2,4.695435791E0,8.664132843E0,9.855102223E0
1.494685529E1,1.067280579E-1,4.688699799E0,8.661588135E0,9.849792165E0
1.495685229E1,1.058299255E-1,4.691992950E0,8.670419769E0,9.859116431E0
1.496684929E1,1.101708984E-1,4.681664429E0,8.666078796E0,9.850433552E0
1.497684729E1,1.026864624E-1,4.682263184E0,8.660690002E0,9.845896828E0
1.498684429E1,9.849517822E-2,4.678970032E0,8.668024750E0,9.850741846E0
1.499684029E1,9.909393311E-2,4.684358826E0,8.663983154E0,9.849753363E0
1.500683829E1,1.047821045E-1,4.688849487E0,8.667725372E0,9.855239821E0
1.501683529E1,1.067280579E-1,4.687053223E0,8.662785645E0,9.850061620E0
1.502683329E1,1.124162292E-1,4.681215363E0,8.656947784E0,9.842213147E0
1.503683129E1,1.008901978E-1,4.694387970E0,8.654253387E0,9.845992024E0
1.504682929E1,9.894424438E-2,4.693040771E0,8.669222260E0,9.858490566E0
1.505682729E1,1.088237000E-1,4.688699799E0,8.662186890E0,9.850341624E0
1.506682429E1,1.035845947E-1,4.688999176E0,8.647218018E0,9.837267023E0
1.507682029E1,9.610015869E-2,4.686005402E0,8.663833466E0,9.850375231E0
1.508681729E1,1.086740112E-1,4.690046997E0,8.668324127E0,9.856378343E0
1.509681429E1,9.969268799E-2,4.680167542E0,8.665330353E0,9.848952075E0
1.510681229E1,9.984237671E-2,4.683161316E0,8.658744049E0,9.844583126E0
1.511681029E1,9.565109253E-2,4.681814117E0,8.668324127E0,9.852328442E0
1.512680929E1,1.083746338E-1,4.691244507E0,8.675958252E0,9.863659142E0
1.513680729E1,9.894424438E-2,4.690346375E0,8.668024750E0,9.856155038E0
1.514680529E1,1.008901978E-1,4.679419098E0,8.655001831E0,9.839522276E0
1.515680329E1,1.071771240E-1,4.683760071E0,8.660839691E0,9.846788283E0
1.516680129E1,1.073268127E-1,4.688550110E0,8.662635956E0,9.850648856E0
1.517679929E1,1.100212097E-1,4.690196686E0,8.660091248E0,9.849224844E0
1.518679829E1,1.062789917E-1,4.680616608E0,8.664881287E0,9.848839260E0
1.519679629E1,9.490264893E-2,4.678670654E0,8.667575684E0,9.850169229E0
1.520679429E1,1.035845947E-1,4.687352600E0,8.655001831E0,9.843325701E0
1.521679229E1,1.040336609E-1,4.684957581E0,8.655450897E0,9.842585065E0
1.522679029E1,1.076261902E-1,4.677622833E0,8.668773193E0,9.850856178E0
1.523678829E1,1.068777466E-1,4.689747620E0,8.662635956E0,9.851214001E0
1.524678629E1,1.092727661E-1,4.676724701E0,8.655899963E0,9.839120827E0
1.525678329E1,1.121168518E-1,4.684658203E0,8.657396851E0,9.844242627E0
1.526678129E1,9.909393311E-2,4.681365051E0,8.652307434E0,9.838059884E0
1.527677829E1,1.065783691E-1,4.678071899E0,8.667425995E0,9.849872538E0
1.528677529E1,1.010398865E-1,4.684807892E0,8.667425995E0,9.853015144E0
1.529677229E1,1.041833496E-1,4.683161316E0,8.666976929E0,9.851870034E0
1.530677029E1,1.091230774E-1,4.696932678E0,8.674161987E0,9.864794504E0
1.531676829E1,1.046324158E-1,4.690346375E0,8.659791870E0,9.848974174E0
1.532676629E1,1.035845947E-1,4.681514740E0,8.657696228E0,9.842916946E0
1.533676429E1,1.038839722E-1,4.683760071E0,8.667425995E0,9.852546557E0
1.534676229E1,1.080752563E-1,4.684059448E0,8.674161987E0,9.858660120E0
1.535676029E1,1.074765015E-1,4.684658203E0,8.662785645E0,9.848930338E0
1.536675829E1,1.004411316E-1,4.678221588E0,8.654253387E0,9.838289859E0
1.537675529E1,9.969268799E-2,4.684508514E0,8.657247162E0,9.843906088E0
1.538675429E1,1.023870850E-1,4.685256958E0,8.661588135E0,9.848107681E0
1.539675129E1,1.064286804E-1,4.683610382E0,8.657696228E0,9.843944192E0
1.540674929E1,9.894424438E-2,4.688101044E0,8.654103699E0,9.842844720E0
1.541674529E1,1.034349060E-1,4.687801666E0,8.668324127E0,9.855253747E0
1.542674329E1,1.019380188E-1,4.683011627E0,8.662785645E0,9.848088362E0
1.543673929E1,1.109193420E-1,4.682263184E0,8.668024750E0,9.852438515E0
1.544673729E1,1.094224548E-1,4.691244507E0,8.666827240E0,9.855640147E0
1.545673529E1,1.029858398E-1,4.678970032E0,8.658294983E0,9.842227322E0
1.546673329E1,1.008901978E-1,4.680766296E0,8.658594360E0,9.843323029E0
1.547673029E1,9.969268799E-2,4.682562561E0,8.664731598E0,9.849563667E0
1.548672729E1,1.022373962E-1,4.690196686E0,8.670270081E0,9.858092143E0
1.549672529E1,1.020877075E-1,4.688699799E0,8.659193115E0,9.847636930E0
1.550672229E1,1.043330383E-1,4.687801666E0,8.666677551E0,9.853814978E0
1.551671929E1,1.086740112E-1,4.687801666E0,8.668174438E0,9.855178466E0
1.552671629E1,9.924362183E-2,4.689148865E0,8.657546539E0,9.846373873E0
1.553671429E1,1.011895752E-1,4.690645752E0,8.649163971E0,9.839737512E0
1.554671229E1,1.037342834E-1,4.691543884E0,8.669970703E0,9.858485523E0
1.555670929E1,9.505233765E-2,4.685107269E0,8.657546539E0,9.844408421E0
1.556670629E1,1.131646729E-1,4.688999176E0,8.670719147E0,9.858036825E0
1.557670529E1,1.031355286E-1,4.678970032E0,8.665180664E0,9.848286827E0
1.558670329E1,1.026864624E-1,4.690346375E0,8.653804321E0,9.843689494E0
1.559670229E1,1.019380188E-1,4.682712250E0,8.658744049E0,9.844390986E0
1.560670029E1,1.086740112E-1,4.686753845E0,8.661737823E0,9.849018924E0
1.561669929E1,1.046324158E-1,4.675227814E0,8.662486267E0,9.844154173E0
1.562669629E1,1.053808594E-1,4.688250732E0,8.662635956E0,9.850485356E0
1.563669429E1,1.037342834E-1,4.700525208E0,8.656947784E0,9.851316814E0
1.564669129E1,1.067280579E-1,4.693040771E0,8.659941559E0,9.850411685E0
1.565668829E1,1.091230774E-1,4.690196686E0,8.659642181E0,9.848820006E0
1.566668529E1,1.109193420E-1,4.687651978E0,8.656199341E0,9.844601119E0
1.567668329E1,1.037342834E-1,4.692442017E0,8.656349030E0,9.846936143E0
1.568668029E1,9.864486694E-2,4.685107269E0,8.659342804E0,9.846023498E0
1.569667829E1,9.984237671E-2,4.681963806E0,8.665330353E0,9.849807293E0
1.570667629E1,1.044827271E-1,4.688699799E0,8.663085022E0,9.851084435E0
1.571667329E1,1.001417542E-1,4.684358826E0,8.667725372E0,9.853055826E0
1.572667229E1,1.076261902E-1,4.687053223E0,8.660690002E0,9.848228400E0
1.573666929E1,1.124162292E-1,4.682412872E0,8.656049652E0,9.841992852E0
1.574666629E1,1.034349060E-1,4.682712250E0,8.658444672E0,9.844143280E0
1.575666329E1,1.044827271E-1,4.690795441E0,8.656798096E0,9.846554310E0
1.576666129E1,1.062789917E-1,4.692142639E0,8.659043427E0,9.849189349E0
1.577665929E1,1.019380188E-1,4.693789215E0,8.637937317E0,9.831378827E0
1.578665729E1,1.040336609E-1,4.684807892E0,8.654702454E0,9.841855645E0
1.579665504E1,1.065783691E-1,4.685256958E0,8.650361481E0,9.838279599E0
1.580665404E1,9.969268799E-2,4.689897308E0,8.668773193E0,9.856607128E0
1.581665404E1,1.046324158E-1,4.693190460E0,8.662186890E0,9.852434539E0
1.582665304E1,1.086740112E-1,4.693938904E0,8.661139069E0,9.851913644E0
1.583665204E1,1.082249451E-1,4.677622833E0,8.664581909E0,9.847174603E0
1.584665004E1,9.430389404E-2,4.693489838E0,8.658444672E0,9.849182921E0
1.585664804E1,1.031355286E-1,4.686753845E0,8.665330353E0,9.852118994E0
1.586664504E1,1.058299255E-1,4.678670654E0,8.659642181E0,9.843300350E0
1.587664404E1,1.109193420E-1,4.679269409E0,8.655899963E0,9.840349053E0
1.588664204E1,1.007405090E-1,4.687801666E0,8.656498718E0,9.844826213E0
1.589664104E1,9.729766846E-2,4.677024078E0,8.654852142E0,9.838215624E0
1.590663904E1,1.007405090E-1,4.687202911E0,8.672216034E0,9.858364505E0
1.591663704E1,1.040336609E-1,4.694537659E0,8.664132843E0,9.854780807E0
1.592663604E1,1.028361511E-1,4.691394196E0,8.653654633E0,9.844058780E0
1.593663404E1,1.058299255E-1,4.688400421E0,8.663683777E0,9.851482887E0
1.594663204E1,9.819580078E-2,4.678071899E0,8.667126617E0,9.849521964E0
1.595663104E1,1.065783691E-1,4.682263184E0,8.656798096E0,9.842514960E0
1.596662904E1,1.071771240E-1,4.694537659E0,8.675209808E0,9.864554525E0
1.597662704E1,1.044827271E-1,4.686304779E0,8.663683777E0,9.850471344E0
1.598662504E1,1.023870850E-1,4.678520966E0,8.662935333E0,9.846090093E0
1.599662304E1,9.819580078E-2,4.685406647E0,8.661288757E0,9.847872907E0
1.600662204E1,9.654922485E-2,4.688999176E0,8.658594360E0,9.847197130E0
1.601662004E1,1.025367737E-1,4.690346375E0,8.667725372E0,9.855928471E0
1.602661904E1,1.050814819E-1,4.697681122E0,8.663234711E0,9.855500276E0
1.603661704E1,1.062789917E-1,4.696633301E0,8.655750275E0,9.848435023E0
1.604661604E1,1.064286804E-1,4.691843262E0,8.663683777E0,9.853128277E0
1.605661504E1,1.046324158E-1,4.690645752E0,8.668174438E0,9.856487894E0
1.606661404E1,1.052311707E-1,4.692741394E0,8.668773193E0,9.858018263E0
1.607661304E1,1.058299255E-1,4.689747620E0,8.661887512E0,9.850544553E0
1.608661204E1,9.654922485E-2,4.680167542E0,8.665030975E0,9.848657359E0
1.609661204E1,1.083746338E-1,4.683760071E0,8.666677551E0,9.851936522E0
1.610661104E1,1.025367737E-1,4.685107269E0,8.666378174E0,9.852251244E0
1.611661104E1,1.011895752E-1,4.689148865E0,8.655600586E0,9.844682723E0
1.612661104E1,1.058299255E-1,4.682712250E0,8.672814789E0,9.856810354E0
1.613661104E1,9.610015869E-2,4.683610382E0,8.670120392E0,9.854766819E0
1.614661004E1,1.002914429E-1,4.686005402E0,8.670120392E0,9.855947068E0
1.615660904E1,1.043330383E-1,4.680616608E0,8.673263855E0,9.856194149E0
1.616660804E1,1.047821045E-1,4.687502289E0,8.663683777E0,9.851044289E0
1.617660704E1,1.004411316E-1,4.679718475E0,8.653504944E0,9.838343420E0
1.618660704E1,1.077758789E-1,4.680167542E0,8.671467590E0,9.854437276E0
1.619660604E1,1.049317932E-1,4.680766296E0,8.661139069E0,9.845603779E0
1.620660504E1,1.053808594E-1,4.678371277E0,8.661438446E0,9.844733561E0
1.621660404E1,1.086740112E-1,4.691992950E0,8.672515411E0,9.860990389E0
1.622660304E1,9.969268799E-2,4.672383728E0,8.666078796E0,9.845914383E0
1.623660204E1,1.073268127E-1,4.680167542E0,8.664132843E0,9.847978736E0
1.624660004E1,1.044827271E-1,4.681215363E0,8.649613037E0,9.835674842E0
1.625659904E1,9.325607300E-2,4.687502289E0,8.670868835E0,9.857248133E0
1.626659704E1,1.055305481E-1,4.684957581E0,8.664132843E0,9.850236655E0
1.627659604E1,1.050814819E-1,4.679868164E0,8.653504944E0,9.838463090E0
1.628659504E1,1.020877075E-1,4.691843262E0,8.669222260E0,9.857952611E0
1.629659404E1,9.999206543E-2,4.689747620E0,8.663085022E0,9.851536593E0
1.630659204E1,1.091230774E-1,4.679718475E0,8.663683777E0,9.847389981E0
1.631659104E1,9.939331055E-2,4.687053223E0,8.677754517E0,9.863152153E0
1.632658904E1,1.016386414E-1,4.687651978E0,8.655750275E0,9.844106069E0
1.633658604E1,9.804611206E-2,4.684658203E0,8.663833466E0,9.849753593E0
1.634658304E1,1.068777466E-1,4.684059448E0,8.661288757E0,9.847322413E0
1.635658104E1,9.580078125E-2,4.687801666E0,8.670120392E0,9.856756559E0
1.636657904E1,1.022373962E-1,4.688849487E0,8.663085022E0,9.851132123E0
1.637657704E1,1.046324158E-1,4.686454468E0,8.663085022E0,9.850017539E0
1.638657404E1,1.047821045E-1,4.686304779E0,8.668623505E0,9.854819391E0
1.639657204E1,1.073268127E-1,4.682562561E0,8.652008057E0,9.838452856E0
1.640657104E1,9.834548950E-2,4.677922211E0,8.658893738E0,9.842208533E0
1.641656904E1,9.415420532E-2,4.692442017E0,8.656648407E0,9.847103063E0
1.642656704E1,1.016386414E-1,4.688250732E0,8.657696228E0,9.846102240E0
1.643656404E1,1.010398865E-1,4.689448242E0,8.666378174E0,9.854300814E0
1.644656204E1,1.067280579E-1,4.686155090E0,8.665629730E0,9.852135760E0
1.645656004E1,1.088237000E-1,4.688250732E0,8.657396851E0,9.845915791E0
1.646655704E1,9.834548950E-2,4.694387970E0,8.658444672E0,9.849650470E0
1.647655404E1,9.999206543E-2,4.697830811E0,8.659492493E0,9.852229340E0
1.648655104E1,1.095721436E-1,4.684807892E0,8.651558990E0,9.839151590E0
1.649654804E1,1.065783691E-1,4.683161316E0,8.668174438E0,9.852949150E0
1.650654504E1,9.894424438E-2,4.684658203E0,8.662186890E0,9.848314280E0
1.651654304E1,1.040336609E-1,4.685855713E0,8.660690002E0,9.847619920E0
1.652654004E1,1.064286804E-1,4.683161316E0,8.668922882E0,9.853605985E0
1.653653804E1,1.058299255E-1,4.688999176E0,8.662336578E0,9.850583142E0
1.654653704E1,1.068777466E-1,4.693340149E0,8.671467590E0,9.860690380E0
1.655653504E1,9.834548950E-2,4.685556335E0,8.664581909E0,9.850842079E0
1.656653304E1,1.050814819E-1,4.683311005E0,8.657396851E0,9.843523978E0
1.657653004E1,9.759704590E-2,4.678221588E0,8.669821014E0,9.851958122E0
1.658652804E1,9.490264893E-2,4.679868164E0,8.661737823E0,9.845601793E0
1.659652704E1,1.031355286E-1,4.697082367E0,8.665030975E0,9.856773382E0
1.660652604E1,1.025367737E-1,4.686604156E0,8.660989380E0,9.848223665E0
1.661652504E1,1.046324158E-1,4.680466919E0,8.662935333E0,9.847038494E0
1.662652304E1,9.430389404E-2,4.685406647E0,8.657696228E0,9.844675345E0
1.663652204E1,1.085243225E-1,4.688849487E0,8.661887512E0,9.850146309E0
1.664652104E1,1.101708984E-1,4.697232056E0,8.647667084E0,9.841660053E0
1.665651904E1,1.076261902E-1,4.691693573E0,8.652307434E0,9.843068420E0
1.666651804E1,1.083746338E-1,4.694387970E0,8.650810547E0,9.843045595E0
1.667651604E1,1.115180969E-1,4.688999176E0,8.655151520E0,9.844328184E0
1.668651404E1,1.082249451E-1,4.671635284E0,8.656648407E0,9.837349771E0
1.669651204E1,1.043330383E-1,4.680766296E0,8.657995605E0,9.842832235E0
1.670651004E1,1.121168518E-1,4.691394196E0,8.669970703E0,9.858506057E0
1.671650904E1,1.170565796E-1,4.689897308E0,8.665180664E0,9.853638665E0
1.672650704E1,1.082249451E-1,4.684658203E0,8.660091248E0,9.846568719E0
1.673650504E1,1.008901978E-1,4.677173767E0,8.668922882E0,9.850703387E0
1.674650304E1,1.038839722E-1,4.689747620E0,8.660540314E0,9.849339224E0
1.675650104E1,9.879455566E-2,4.680017853E0,8.666976929E0,9.850320632E0
1.676650004E1,9.744735718E-2,4.680466919E0,8.664282532E0,9.848149997E0
1.677649804E1,9.984237671E-2,4.687053223E0,8.656349030E0,9.844329075E0
1.678649704E1,9.894424438E-2,4.690346375E0,8.664432220E0,9.852995726E0
1.679649625E1,1.022373962E-1,4.684508514E0,8.658145294E0,9.844722060E0
1.680649525E1,1.016386414E-1,4.682861938E0,8.663833466E0,9.848935814E0
1.681649525E1,9.864486694E-2,4.687202911E0,8.659791870E0,9.847415761E0
1.682649325E1,1.019380188E-1,4.686604156E0,8.666527863E0,9.853088606E0
1.683649125E1,1.058299255E-1,4.693789215E0,8.659642181E0,9.850495413E0
1.684648925E1,1.127156067E-1,4.692741394E0,8.651858368E0,9.843230152E0
1.685648725E1,9.759704590E-2,4.689597931E0,8.666378174E0,9.854337349E0
